timestamp,omega_z,accel_x,accel_y,accel_z
1.7710606189531607e+18,0.0,0.23104046285152435,0.11671733111143112,10.164583206176758
1.7710606190031736e+18,0.0,0.21607670187950134,0.15682020783424377,10.183736801147461
1.771060619053087e+18,0.0,0.19572599232196808,0.12270283699035645,10.135852813720703
1.7710606191030825e+18,0.0,0.20709843933582306,0.12210428714752197,10.163386344909668
1.7710606191530813e+18,0.0,0.2124854028224945,0.104147769510746,10.190918922424316
1.7710606192031775e+18,0.0,0.1951274424791336,0.12868833541870117,10.15261173248291
1.771060619253083e+18,0.0,0.23403321206569672,0.08439560979604721,10.186729431152344
1.771060619303086e+18,0.0,0.2148796021938324,0.12389993667602539,10.196905136108398
1.7710606193530826e+18,0.0,0.19871874153614044,0.15263035893440247,10.160991668701172
1.7710606194031854e+18,0.0,0.19812019169330597,0.10474631935358047,10.178948402404785
1.771060619453084e+18,0.0,0.19931729137897491,0.15801730751991272,10.219051361083984
1.771060619503145e+18,0.0,0.16519992053508759,0.12988543510437012,10.192116737365723
1.7710606195530826e+18,0.0,0.23822306096553802,0.12749123573303223,10.186729431152344
1.7710606196031068e+18,0.0,0.1999158412218094,0.13287819921970367,10.187328338623047
1.7710606196530836e+18,0.0,0.21368250250816345,0.11971008032560349,10.173561096191406
1.7710606197030845e+18,0.0,0.20231004059314728,0.1430535465478897,10.178349494934082
1.7710606197531814e+18,0.0,0.2041056901216507,0.11432313174009323,10.152013778686523
1.7710606198030833e+18,0.0,0.22685061395168304,0.09576806426048279,10.169970512390137
1.7710606198531878e+18,0.0,0.228047713637352,0.08858545869588852,10.152013778686523
1.7710606199030103e+18,0.0,0.23283611238002777,0.09935937076807022,10.175955772399902
1.7710606199530693e+18,0.0,0.18794482946395874,0.11911153048276901,10.165780067443848
1.7710606200030881e+18,0.0,0.20769698917865753,0.1304839849472046,10.181342124938965
1.7710606200531715e+18,0.0,0.2454056739807129,0.09277531504631042,10.140641212463379
1.7710606201031043e+18,0.0,0.18614917993545532,0.12090718746185303,10.183736801147461
1.7710606201531123e+18,0.0,0.2256534993648529,0.1346738487482071,10.163984298706055
1.771060620203169e+18,0.0,0.2148796021938324,0.10833762586116791,10.188525199890137
1.7710606202531914e+18,0.0,0.19393032789230347,0.14065934717655182,10.183736801147461
1.771060620303056e+18,0.0,0.20350714027881622,0.1364694982767105,10.158597946166992
1.7710606203530803e+18,0.0,0.19572599232196808,0.1412578970193863,10.207079887390137
1.7710606204030886e+18,0.0,0.24660277366638184,0.10594342648983002,10.198101997375488
1.771060620453183e+18,0.0,0.20470423996448517,0.1215057373046875,10.155006408691406
1.7710606205031078e+18,0.0,0.19871874153614044,0.11851298063993454,10.130465507507324
1.7710606205530862e+18,0.0,0.22445639967918396,0.10235211998224258,10.163386344909668
1.7710606206030868e+18,0.0,0.19692309200763702,0.14006079733371735,10.190918922424316
1.7710606206530852e+18,0.0,0.19213467836380005,0.1173158809542656,10.1753568649292
1.7710606207030884e+18,0.0,0.2041056901216507,0.11611878126859665,10.193912506103516
1.771060620753088e+18,0.0,0.18914192914962769,0.14604629576206207,10.126276016235352
1.7710606208030863e+18,0.0,0.22206220030784607,0.12868833541870117,10.205284118652344
1.7710606208530655e+18,0.0,0.22505494952201843,0.06763619929552078,10.169371604919434
1.7710606209030838e+18,0.0,0.19871874153614044,0.15263035893440247,10.172364234924316
1.7710606209530877e+18,0.0,0.19931729137897491,0.1364694982767105,10.198101997375488
1.7710606210030646e+18,0.0,0.19153612852096558,0.12509703636169434,10.185532569885254
1.7710606210530698e+18,0.0,0.18375498056411743,0.16400282084941864,10.193313598632812
1.7710606211030136e+18,0.0,0.18136078119277954,0.1430535465478897,10.169970512390137
1.7710606211530632e+18,0.0,0.2364274114370346,0.12689268589019775,10.188525199890137
1.7710606212031388e+18,0.0,0.2190694510936737,0.12509703636169434,10.203489303588867
1.771060621253191e+18,0.0,0.18734627962112427,0.13946224749088287,10.178349494934082
1.7710606213030866e+18,0.0,0.20470423996448517,0.13527239859104156,10.201693534851074
1.7710606213531886e+18,0.0,0.18495208024978638,0.14185644686222076,10.162787437438965
1.771060621403088e+18,0.0,0.208295539021492,0.090979665517807,10.17416000366211
1.771060621453506e+18,0.0,0.208295539021492,0.11192892491817474,10.161590576171875
1.7710606215030858e+18,0.0,0.2190694510936737,0.09576806426048279,10.17416000366211
1.7710606215530862e+18,0.0,0.2190694510936737,0.104147769510746,10.168174743652344
1.7710606216030886e+18,0.0,0.21128830313682556,0.1412578970193863,10.196905136108398
1.771060621653083e+18,0.0,0.19153612852096558,0.1346738487482071,10.179547309875488
1.77106062170309e+18,0.0,0.20949263870716095,0.104147769510746,10.19151782989502
1.7710606217531008e+18,0.0,0.20470423996448517,0.12270283699035645,10.160991668701172
1.771060621803096e+18,0.0,0.1951274424791336,0.13108253479003906,10.155006408691406
1.7710606218530803e+18,0.0,0.23104046285152435,0.08379705995321274,10.159794807434082
1.7710606219031667e+18,0.0,0.2059013396501541,0.11013327538967133,10.16637897491455
1.7710606219530053e+18,0.0,0.20530278980731964,0.10714052617549896,10.183736801147461
1.7710606220030208e+18,-0.004256799817085266,0.21607670187950134,0.1215057373046875,10.178948402404785
1.7710606220530458e+18,-0.01383460033684969,0.22206220030784607,0.05386953800916672,10.154407501220703
1.771060622103024e+18,-0.029797600582242012,0.31842881441116333,0.0802057534456253,10.218452453613281
1.7710606221530232e+18,0.0,0.3423708379268646,0.05925649031996727,10.180145263671875
1.7710606222030077e+18,0.01383460033684969,0.13108253479003906,0.14724339544773102,10.133458137512207
1.7710606222530048e+18,0.025540800765156746,0.1777694672346115,0.17896656692028046,10.111910820007324
1.7710606223030129e+18,0.0063852001912891865,0.17956513166427612,0.1173158809542656,10.126276016235352
1.771060622353004e+18,0.0,0.16819266974925995,0.11192892491817474,10.162188529968262
1.7710606224030195e+18,0.0063852001912891865,0.23702596127986908,0.1173158809542656,10.16877269744873
1.7710606224530038e+18,0.009577799588441849,0.2825157940387726,0.13826514780521393,10.229825019836426
1.7710606225030065e+18,0.014898800291121006,0.03172317147254944,0.18914192914962769,10.162188529968262
1.7710606225530102e+18,0.0,0.0933738648891449,0.07242459803819656,10.16637897491455
1.7710606226030275e+18,-0.007449400145560503,0.1885433793067932,0.10235211998224258,10.131064414978027
1.7710606226530063e+18,0.008513599634170532,0.16759411990642548,0.09576806426048279,10.181941032409668
1.771060622703023e+18,0.0,0.25019407272338867,0.1496376097202301,10.124480247497559
1.7710606227530112e+18,0.017027199268341064,0.5021837949752808,0.090979665517807,10.197503089904785
1.7710606228030244e+18,0.014898800291121006,0.09935937076807022,0.13347674906253815,10.193912506103516
1.771060622853019e+18,0.005320999771356583,0.04369417950510979,0.1149216815829277,10.154407501220703
1.771060622903015e+18,0.0,0.23044191300868988,0.10115502029657364,10.141240119934082
1.7710606229530196e+18,0.0,0.25079262256622314,0.07960720360279083,10.175955772399902
1.7710606230030113e+18,0.010641999542713165,0.22086510062217712,0.1909375786781311,10.229227066040039
1.771060623053031e+18,0.011706200428307056,0.29867666959762573,0.14903905987739563,10.171167373657227
1.7710606231030126e+18,0.0,0.17058686912059784,0.10714052617549896,10.217255592346191
1.7710606231530074e+18,-0.011706200428307056,0.17178396880626678,0.008978256024420261,10.195109367370605
1.7710606232030144e+18,0.004256799817085266,0.33698388934135437,0.0293289702385664,10.19271469116211
1.771060623253014e+18,0.010641999542713165,0.15322890877723694,0.1280897855758667,10.179547309875488
1.7710606233030088e+18,0.0,-0.04848258197307587,0.09038111567497253,10.141240119934082
1.7710606233530084e+18,0.008513599634170532,0.32261866331100464,0.22206220030784607,10.266336441040039
1.7710606234030177e+18,0.0,0.18375498056411743,0.3890577554702759,10.178349494934082
1.7710606234530755e+18,0.009577799588441849,0.29209259152412415,0.17717091739177704,10.264540672302246
1.77106062350308e+18,0.0063852001912891865,0.17058686912059784,0.10654197633266449,10.67634391784668
1.771060623553106e+18,0.0,0.33698388934135437,0.08259996026754379,10.154407501220703
1.771060623603067e+18,0.01809139922261238,0.42197805643081665,0.12868833541870117,10.200495719909668
1.7710606236530903e+18,0.0,0.10714052617549896,0.16220715641975403,10.213066101074219
1.771060623703083e+18,-0.004256799817085266,0.45250412821769714,0.06763619929552078,10.284892082214355
1.771060623753185e+18,0.012770400382578373,0.3321954905986786,0.14484919607639313,10.250175476074219
1.7710606238030804e+18,0.009577799588441849,0.18495208024978638,0.12629413604736328,10.13166332244873
1.7710606238530632e+18,-0.008513599634170532,0.16998831927776337,0.243011474609375,10.183736801147461
1.7710606239030792e+18,0.0063852001912891865,0.2861070930957794,0.1364694982767105,10.150816917419434
1.7710606239530842e+18,0.0,0.22864626348018646,0.2124854028224945,10.284892082214355
1.7710606240030633e+18,0.0,0.11192892491817474,0.04189852997660637,10.253169059753418
1.7710606240531026e+18,-0.012770400382578373,0.002394201699644327,0.09935937076807022,10.181941032409668
1.7710606241030912e+18,-0.011706200428307056,0.325611412525177,0.20889408886432648,10.153809547424316
1.771060624153066e+18,0.0063852001912891865,0.1280897855758667,0.1173158809542656,10.268731117248535
1.7710606242030815e+18,-0.011706200428307056,0.2059013396501541,0.1843535304069519,10.269927978515625
1.7710606242530852e+18,0.008513599634170532,0.36152446269989014,0.11372458189725876,10.271124839782715
1.7710606243030267e+18,-0.008513599634170532,0.09876082092523575,0.18076223134994507,10.13286018371582
1.7710606243530819e+18,-0.008513599634170532,0.4926069974899292,0.1280897855758667,10.13525390625
1.771060624403092e+18,-0.010641999542713165,-0.05027823522686958,0.15023615956306458,10.070012092590332
1.7710606244530826e+18,-0.010641999542713165,0.02693476900458336,0.10953472554683685,10.096348762512207
1.771060624503103e+18,-0.005320999771356583,0.19572599232196808,-0.019153613597154617,10.34833812713623
1.771060624553023e+18,-0.010641999542713165,0.1412578970193863,0.23702596127986908,10.047266960144043
1.7710606246030725e+18,-0.009577799588441849,0.4016273319721222,0.08738835901021957,10.277709007263184
1.7710606246530726e+18,-0.009577799588441849,-0.08319851011037827,0.19273322820663452,9.996989250183105
1.7710606247030095e+18,0.0,0.7541735172271729,0.050876785069704056,10.383652687072754
1.771060624753046e+18,-0.019155599176883698,0.22505494952201843,0.18315643072128296,10.202890396118164
1.771060624803029e+18,-0.010641999542713165,0.025737667456269264,0.3824737071990967,10.14902114868164
1.7710606248530232e+18,-0.041503798216581345,0.1430535465478897,-0.005985504016280174,10.511143684387207
1.7710606249030228e+18,-0.023412400856614113,0.6177040338516235,0.05506663769483566,9.658807754516602
1.7710606249531105e+18,0.0,0.10594342648983002,0.17477671802043915,10.016740798950195
1.7710606250031e+18,0.007449400145560503,-0.3232172131538391,0.45669397711753845,10.366294860839844
1.7710606250531658e+18,-0.025540800765156746,0.7930793166160583,-0.021547814831137657,10.095749855041504
1.7710606251030072e+18,0.0,-0.03890577703714371,-0.1586158573627472,10.219649314880371
1.7710606251530854e+18,0.009577799588441849,0.04668693244457245,0.272938996553421,10.471639633178711
1.771060625203083e+18,-0.010641999542713165,-0.07182604819536209,-0.2974795699119568,10.119691848754883
1.7710606252531336e+18,0.025540800765156746,-0.1586158573627472,0.11192892491817474,10.16757583618164
1.7710606253031424e+18,0.0,0.5165489912033081,0.09696516394615173,9.908403396606445
1.7710606253530176e+18,-0.007449400145560503,-0.18495208024978638,-0.07122749835252762,10.48061752319336
1.7710606254030449e+18,0.03724699839949608,0.17477671802043915,0.0035913025494664907,10.063427925109863
1.771060625453047e+18,0.007449400145560503,-0.0999579206109047,0.690727174282074,10.195707321166992
1.7710606255030766e+18,0.059595201164484024,0.7541735172271729,0.14425064623355865,10.074800491333008
1.7710606255532308e+18,0.0063852001912891865,0.12270283699035645,-0.14245499670505524,10.305242538452148
1.7710606256030175e+18,-0.03405439853668213,0.21128830313682556,-0.3627215623855591,10.528501510620117
1.771060625653006e+18,0.028733400627970695,0.3537432849407196,0.730231523513794,10.001777648925781
1.7710606257030083e+18,0.0,0.19632454216480255,0.3196259140968323,10.48061752319336
1.7710606257530104e+18,-0.041503798216581345,0.31124621629714966,-0.14484919607639313,9.828197479248047
1.7710606258030152e+18,-0.031925998628139496,-0.132279634475708,0.2585737705230713,10.305841445922852
1.7710606258530076e+18,0.020219799131155014,0.0005985504249110818,0.44651859998703003,10.399813652038574
1.7710606259030113e+18,0.0,0.884058952331543,0.16220715641975403,10.147225379943848
1.771060625953007e+18,-0.020219799131155014,0.26575639843940735,0.43335050344467163,10.281899452209473
1.771060626003022e+18,-0.04895320162177086,-0.046088382601737976,-0.518943190574646,10.314220428466797
1.771060626053054e+18,0.0,0.31842881441116333,0.3974374830722809,9.516352653503418
1.7710606261030175e+18,-0.031925998628139496,-0.70090252161026,0.4710591733455658,10.380660057067871
1.7710606261530202e+18,0.02128399908542633,0.8816647529602051,0.4626794755458832,10.40699577331543
1.7710606262030262e+18,0.0,-0.29628247022628784,0.21188685297966003,10.19151782989502
1.7710606262531702e+18,-0.03724699839949608,-0.3214215636253357,-0.21188685297966003,9.977835655212402
1.7710606263030292e+18,0.020219799131155014,0.8134300112724304,0.14844051003456116,9.929352760314941
1.771060626353051e+18,0.02128399908542633,-0.14245499670505524,-0.028131868690252304,10.08557415008545
1.7710606264031844e+18,0.015962999314069748,0.7350199222564697,0.06643909960985184,10.046669006347656
1.7710606264531773e+18,0.056402601301670074,0.25677812099456787,-0.13168108463287354,10.204686164855957
1.771060626503094e+18,0.02447660081088543,-0.3124433159828186,-0.15143325924873352,10.913370132446289
1.7710606265530867e+18,0.046824801713228226,1.1378443241119385,0.3734954595565796,10.022128105163574
1.771060626603028e+18,0.050017401576042175,-0.07721300423145294,0.4207809269428253,9.830592155456543
1.771060626653081e+18,-0.008513599634170532,0.14365209639072418,-0.9756371974945068,10.166976928710938
1.7710606267030948e+18,0.03086180053651333,0.02753331884741783,0.507570743560791,10.022727012634277
1.771060626753177e+18,-0.01383460033684969,-0.5662286877632141,0.052073884755373,10.289680480957031
1.7710606268030308e+18,0.053210001438856125,1.103128433227539,0.773327112197876,10.69370174407959
1.7710606268531766e+18,-0.014898800291121006,0.19692309200763702,-0.1364694982767105,10.10173511505127
1.7710606269031785e+18,-0.012770400382578373,-0.04967968538403511,0.5758054852485657,9.91977596282959
1.771060626953016e+18,0.004256799817085266,0.48063597083091736,0.2561795711517334,9.708487510681152
1.7710606270031693e+18,-0.022348200902342796,-0.02214636467397213,0.18375498056411743,10.290877342224121
1.7710606270532557e+18,-0.02447660081088543,0.5578489899635315,0.06165069341659546,9.91977596282959
1.7710606271030147e+18,-0.019155599176883698,0.6506242752075195,0.11611878126859665,9.898826599121094
1.7710606271530284e+18,0.0,-0.17178396880626678,0.43035775423049927,10.372879028320312
1.771060627203183e+18,0.031925998628139496,1.0193313360214233,0.1628057062625885,9.995792388916016
1.7710606272530376e+18,-0.026605000719428062,-0.4991910457611084,0.5895721316337585,10.369287490844727
1.7710606273031455e+18,-0.0063852001912891865,0.6338648796081543,-0.6721721291542053,10.468048095703125
1.7710606273530294e+18,0.008513599634170532,0.014963760040700436,-0.10235211998224258,10.18613052368164
1.7710606274032118e+18,0.01383460033684969,-0.628477931022644,-0.09876082092523575,9.995792388916016
1.7710606274531756e+18,0.043632201850414276,0.6991068720817566,0.19812019169330597,10.3148193359375
1.7710606275030984e+18,0.02447660081088543,-0.3148375153541565,0.16400282084941864,10.102932929992676
1.771060627553079e+18,-0.02447660081088543,-0.7260416746139526,-0.7673416137695312,9.873088836669922
1.7710606276030868e+18,0.07662239670753479,1.5484498739242554,0.5446808934211731,10.128071784973145
1.771060627653253e+18,0.020219799131155014,0.07362169772386551,-0.08319851011037827,10.068216323852539
1.7710606277031665e+18,0.015962999314069748,1.2461819648742676,-0.10115502029657364,9.97484302520752
1.7710606277530284e+18,-0.02128399908542633,0.03531447425484657,-0.17836801707744598,10.231021881103516
1.771060627803184e+18,0.029797600582242012,0.30226796865463257,0.517746090888977,10.19032096862793
1.7710606278530317e+18,0.03405439853668213,0.7769184112548828,0.6057330369949341,10.220847129821777
1.7710606279030876e+18,-0.03086180053651333,-0.29807811975479126,-0.05027823522686958,10.44051456451416
1.7710606279530317e+18,-0.010641999542713165,0.15502455830574036,-0.7236474752426147,10.385448455810547
1.7710606280031729e+18,-0.022348200902342796,0.02513911761343479,0.08379705995321274,10.119691848754883
1.771060628053031e+18,-0.022348200902342796,0.34356793761253357,0.70090252161026,11.04983901977539
1.7710606281031798e+18,0.022348200902342796,0.9205705523490906,0.7050923705101013,10.192116737365723
1.7710606281531712e+18,-0.005320999771356583,0.10055647045373917,-0.004788403399288654,10.067618370056152
1.7710606282031695e+18,-0.05533840134739876,-0.7643488645553589,-0.11192892491817474,9.972448348999023
1.7710606282530872e+18,-0.035118598490953445,0.3238157629966736,-0.06823474913835526,10.590152740478516
1.771060628303066e+18,0.01809139922261238,0.208295539021492,0.17956513166427612,10.916362762451172
1.7710606283530624e+18,-0.0063852001912891865,0.39564183354377747,-0.04189852997660637,10.631452560424805
1.7710606284031995e+18,0.01809139922261238,-0.5524620413780212,-0.04848258197307587,10.74218463897705
1.7710606284531607e+18,0.03299019858241081,0.032920271158218384,0.2795230448246002,10.22623348236084
1.7710606285031972e+18,0.028733400627970695,0.4183867275714874,0.26336216926574707,9.946710586547852
1.7710606285531863e+18,0.031925998628139496,-0.17477671802043915,0.16519992053508759,10.36689281463623
1.7710606286030446e+18,0.007449400145560503,0.2148796021938324,-0.447715699672699,9.88506031036377
1.7710606286532577e+18,0.056402601301670074,0.3387795388698578,0.3908534348011017,10.33098030090332
1.7710606287030746e+18,0.012770400382578373,-0.5488707423210144,0.3148375153541565,10.348937034606934
1.7710606287530819e+18,0.03086180053651333,0.9864110946655273,0.23702596127986908,9.679159164428711
1.771060628803056e+18,-0.012770400382578373,-0.014365210197865963,0.06703764945268631,10.165182113647461
1.7710606288530258e+18,-0.04043959826231003,0.07003039866685867,-0.8619126081466675,9.532513618469238
1.7710606289030216e+18,0.014898800291121006,0.8846575021743774,0.4537012279033661,9.95449161529541
1.7710606289531896e+18,0.0,-0.055665187537670135,0.2561795711517334,10.242993354797363
1.7710606290031465e+18,0.0,0.8224082589149475,0.19033902883529663,9.973047256469727
1.7710606290530278e+18,-0.015962999314069748,-0.13347674906253815,-0.16639702022075653,10.056843757629395
1.771060629103108e+18,-0.011706200428307056,0.30526071786880493,0.6027402877807617,9.8784761428833
1.7710606291531912e+18,0.008513599634170532,1.1222820281982422,0.5644330382347107,10.068216323852539
1.7710606292030252e+18,-0.03937539830803871,-0.2998737692832947,-0.10953472554683685,9.840168952941895
1.7710606292531904e+18,-0.03618279844522476,0.750582218170166,0.043095629662275314,9.891045570373535
1.7710606293031823e+18,-0.007449400145560503,0.18315643072128296,0.14724339544773102,10.134655952453613
1.7710606293536077e+18,0.0063852001912891865,0.05027823522686958,0.29209259152412415,10.444106101989746
1.771060629403081e+18,0.01809139922261238,0.5716156363487244,0.5045779943466187,10.159195899963379
1.7710606294532073e+18,0.009577799588441849,0.24361002445220947,-0.18734627962112427,9.70310115814209
1.771060629503162e+18,0.0,-0.8852560520172119,-0.40940847992897034,10.222043991088867
1.771060629553066e+18,0.014898800291121006,0.14604629576206207,-0.04908113554120064,10.07779312133789
1.7710606296031895e+18,0.028733400627970695,0.13527239859104156,0.29807811975479126,10.178349494934082
1.7710606296530368e+18,0.0,-0.28730419278144836,-0.5919663310050964,9.874884605407715
1.7710606297031747e+18,0.01809139922261238,0.2059013396501541,-0.0293289702385664,9.734225273132324
1.7710606297530742e+18,0.038311198353767395,-0.17298106849193573,0.8236053586006165,10.24658489227295
1.771060629803165e+18,0.02766920067369938,0.6368576288223267,0.2914940416812897,10.052654266357422
1.7710606298531976e+18,0.01809139922261238,-0.3238157629966736,-0.019153613597154617,10.005967140197754
1.771060629903142e+18,-0.04469640180468559,0.050876785069704056,-0.3926490843296051,10.250774383544922
1.7710606299533071e+18,-0.008513599634170532,-0.1430535465478897,0.05985504016280174,8.872312545776367
1.771060630003143e+18,-0.011706200428307056,-0.5500678420066833,0.8074445128440857,10.146028518676758
1.7710606300531802e+18,-0.004256799817085266,0.9415197968482971,-0.19153612852096558,10.138246536254883
1.7710606301030093e+18,-0.019155599176883698,0.24899697303771973,-0.040701426565647125,10.489596366882324
1.7710606301531681e+18,-0.06704460084438324,-0.871489405632019,-0.8020575642585754,10.02571964263916
1.7710606302032218e+18,0.0,0.7912836670875549,0.7116764187812805,10.278905868530273
1.7710606302534623e+18,-0.009577799588441849,-0.2783259451389313,0.032920271158218384,10.221445083618164
1.771060630303039e+18,0.012770400382578373,0.5764040350914001,0.19931729137897491,10.061034202575684
1.7710606303530276e+18,-0.019155599176883698,-0.12689268589019775,-0.21547815203666687,9.662399291992188
1.7710606304031916e+18,0.004256799817085266,-1.137245774269104,-0.1885433793067932,10.377068519592285
1.771060630453208e+18,0.04469640180468559,0.9965864419937134,0.03411737456917763,10.016740798950195
1.7710606305031813e+18,0.04576060175895691,-0.6853402256965637,-0.1562216579914093,9.831789016723633
1.7710606305531402e+18,-0.015962999314069748,0.3770867586135864,-0.5009866952896118,9.637858390808105
1.771060630603149e+18,0.041503798216581345,0.6596025824546814,0.18136078119277954,10.186729431152344
1.7710606306531569e+18,0.03086180053651333,-0.4572925269603729,0.5943605899810791,10.153809547424316
1.7710606307032645e+18,0.050017401576042175,0.6458358764648438,0.4686649739742279,10.120888710021973
1.7710606307531487e+18,0.022348200902342796,-0.0652419924736023,0.028730420395731926,9.964667320251465
1.7710606308030195e+18,0.004256799817085266,-0.1885433793067932,-0.15143325924873352,11.05402946472168
1.7710606308531679e+18,0.012770400382578373,0.8146271109580994,0.0005985504249110818,9.818620681762695
1.771060630903191e+18,0.020219799131155014,0.18076223134994507,0.3196259140968323,10.01195240020752
1.7710606309532442e+18,-0.025540800765156746,0.02992752008140087,-0.7044938206672668,10.08557415008545
1.7710606310031068e+18,0.0,0.345363587141037,-0.3447650372982025,9.97484302520752
1.7710606310535613e+18,0.0,-0.7068880200386047,0.5907692313194275,9.99100399017334
1.7710606311031636e+18,0.029797600582242012,1.489791989326477,0.20889408886432648,10.214860916137695
1.771060631153091e+18,-0.008513599634170532,-0.152031809091568,0.5602431893348694,10.049661636352539
1.7710606312032038e+18,-0.05214580148458481,-0.30705636739730835,-0.8349778056144714,10.133458137512207
1.7710606312531044e+18,0.008513599634170532,0.49320554733276367,0.48303017020225525,10.309432029724121
1.7710606313030843e+18,0.0,-0.5045779943466187,0.3429693877696991,10.468048095703125
1.7710606313531095e+18,-0.011706200428307056,0.8631097078323364,0.076015904545784,10.379463195800781
1.7710606314031918e+18,-0.020219799131155014,-0.19273322820663452,0.31783026456832886,9.986215591430664
1.771060631453074e+18,-0.015962999314069748,-0.13946224749088287,-0.05506663769483566,10.064624786376953
1.771060631503095e+18,-0.005320999771356583,0.11252747476100922,-0.03770867735147476,10.164583206176758
1.7710606315531384e+18,0.029797600582242012,0.14065934717655182,0.4315548539161682,10.357316017150879
1.7710606316030198e+18,0.04576060175895691,0.5608417391777039,0.4124012291431427,9.762955665588379
1.7710606316531587e+18,0.041503798216581345,0.09217676520347595,-0.19871874153614044,9.941324234008789
1.7710606317031977e+18,0.017027199268341064,-0.5051765441894531,0.6386532783508301,10.229227066040039
1.7710606317530002e+18,0.09577800333499908,1.4077905416488647,0.3130418658256531,10.098742485046387
1.771060631803068e+18,0.03724699839949608,-0.30466216802597046,0.2950853407382965,10.5715970993042
1.771060631853563e+18,-0.03086180053651333,-0.2651578485965729,-0.6572083830833435,10.262146949768066
1.7710606319031409e+18,-0.009577799588441849,0.35733458399772644,-0.10893617570400238,9.810839653015137
1.7710606319531768e+18,0.023412400856614113,-0.21009118854999542,0.5261257886886597,10.177751541137695
1.7710606320031547e+18,-0.041503798216581345,0.4118026793003082,0.33099839091300964,10.11669921875
1.7710606320530335e+18,-0.026605000719428062,0.314238965511322,0.2214636504650116,9.929352760314941
1.7710606321031158e+18,-0.07342980057001114,-0.6961141228675842,-0.12389993667602539,10.087968826293945
1.771060632153167e+18,0.022348200902342796,0.8846575021743774,0.2106897532939911,10.205284118652344
1.7710606322032138e+18,-0.008513599634170532,-0.1107318252325058,0.5716156363487244,9.744400978088379
1.7710606322530803e+18,0.005320999771356583,0.4141968786716461,0.013766659423708916,10.229825019836426
1.77106063230315e+18,-0.01809139922261238,0.06823474913835526,-0.406415730714798,9.589974403381348
1.7710606323531753e+18,-0.01383460033684969,-1.1103110313415527,-0.5602431893348694,10.594941139221191
1.7710606324030177e+18,0.02447660081088543,1.4413094520568848,0.2256534993648529,10.25855541229248
1.7710606324530196e+18,0.01809139922261238,-0.2932896912097931,0.15741875767707825,9.877877235412598
1.7710606325030328e+18,0.014898800291121006,-0.12509703636169434,0.16639702022075653,10.305242538452148
1.7710606325531668e+18,-0.004256799817085266,0.10055647045373917,0.19033902883529663,9.804854393005371
1.7710606326030103e+18,0.02128399908542633,-0.26755204796791077,0.3585317134857178,10.099939346313477
1.7710606326537244e+18,0.05533840134739876,0.7062894701957703,0.29388824105262756,9.949703216552734
1.7710606327031892e+18,0.011706200428307056,0.3076549172401428,0.10115502029657364,9.81263542175293
1.771060632753075e+18,0.0,-0.2388216108083725,-0.30705636739730835,10.36689281463623
1.771060632803149e+18,0.038311198353767395,0.48123452067375183,0.3076549172401428,9.790489196777344
1.771060632853111e+18,0.025540800765156746,0.20231004059314728,0.4692635238170624,10.160393714904785
1.771060632903245e+18,0.04576060175895691,0.416591078042984,0.5793967843055725,10.124480247497559
1.7710606329532106e+18,0.011706200428307056,0.3190273642539978,-0.33039984107017517,10.219649314880371
1.7710606330031647e+18,0.0,-0.5363011956214905,0.7691372632980347,10.278905868530273
1.771060633053087e+18,0.029797600582242012,0.34416648745536804,0.5997475385665894,9.719261169433594
1.77106063310311e+18,0.020219799131155014,-0.25019407272338867,0.18315643072128296,9.749189376831055
1.7710606331531776e+18,-0.043632201850414276,-0.7613561153411865,-0.8062474131584167,10.138246536254883
1.7710606332030426e+18,-0.029797600582242012,1.082777738571167,0.2364274114370346,9.819219589233398
1.7710606332531773e+18,0.012770400382578373,-0.6655880808830261,0.6697779297828674,10.518326759338379
1.7710606333030856e+18,-0.03299019858241081,0.28371289372444153,0.26336216926574707,9.877279281616211
1.7710606333531763e+18,-0.059595201164484024,0.456095427274704,0.07900865375995636,9.871293067932129
1.7710606334030728e+18,-0.020219799131155014,-1.1115081310272217,0.333991140127182,10.256759643554688
1.771060633453173e+18,0.0,0.19871874153614044,0.17058686912059784,10.061034202575684
1.7710606335031785e+18,-0.009577799588441849,-0.12928688526153564,0.7416039705276489,10.094552993774414
1.7710606335530222e+18,0.0,-0.02693476900458336,-0.1951274424791336,10.22503662109375
1.7710606336030766e+18,0.009577799588441849,0.11252747476100922,0.23822306096553802,9.900622367858887
1.7710606336531602e+18,0.03086180053651333,-0.2795230448246002,0.33698388934135437,10.58895492553711
1.7710606337032689e+18,0.03724699839949608,0.834379255771637,0.21009118854999542,10.014347076416016
1.771060633753166e+18,0.01809139922261238,0.7284358739852905,0.5297170877456665,10.242993354797363
1.7710606338032212e+18,0.0,-0.9026139974594116,-0.7775169610977173,10.854113578796387
1.7710606338530906e+18,0.0649162009358406,1.1019313335418701,0.43754035234451294,10.272322654724121
1.7710606339034074e+18,0.025540800765156746,-0.42856210470199585,0.9199720025062561,10.338761329650879
1.7710606339532214e+18,0.03086180053651333,0.8672995567321777,0.14484919607639313,10.148422241210938
1.7710606340030308e+18,-0.05214580148458481,0.4758475720882416,-0.1538274586200714,9.668983459472656
1.7710606340531569e+18,-0.04576060175895691,0.11971008032560349,-0.872686505317688,10.08437728881836
1.7710606341030318e+18,0.0,0.6446387767791748,0.5674257874488831,9.875483512878418
1.7710606341530455e+18,-0.015962999314069748,0.08499415963888168,0.6584054827690125,10.264540672302246
1.7710606342031836e+18,0.0,0.772130012512207,-0.019153613597154617,10.117298126220703
1.7710606342530368e+18,-0.025540800765156746,-0.295683890581131,0.09038111567497253,9.889249801635742
1.7710606343030275e+18,0.0,0.13347674906253815,0.24001871049404144,9.90122127532959
1.7710606343530186e+18,0.005320999771356583,0.39205053448677063,0.6404489278793335,10.439916610717773
1.7710606344031793e+18,-0.009577799588441849,0.2472013235092163,0.2621650695800781,10.42315673828125
1.771060634453087e+18,-0.020219799131155014,-0.7924807667732239,-0.46327802538871765,9.739612579345703
1.771060634503185e+18,-0.009577799588441849,0.08499415963888168,0.14604629576206207,9.610325813293457
1.7710606345530322e+18,0.004256799817085266,0.05506663769483566,0.45848962664604187,10.469843864440918
1.7710606346031724e+18,0.017027199268341064,0.28969839215278625,-0.015562310814857483,10.02811336517334
1.7710606346531832e+18,0.010641999542713165,-0.18136078119277954,0.23403321206569672,9.847949981689453
1.7710606347031104e+18,-0.005320999771356583,-0.29209259152412415,-0.4291606545448303,9.964068412780762
1.7710606347531786e+18,0.04895320162177086,0.8930371999740601,0.3232172131538391,10.521319389343262
1.771060634803096e+18,0.038311198353767395,0.6590040326118469,0.132279634475708,10.337564468383789
1.7710606348531643e+18,0.02128399908542633,0.07841010391712189,0.05686229094862938,10.032901763916016
1.771060634903087e+18,0.03937539830803871,0.4578910768032074,0.0694318488240242,10.27591323852539
1.7710606349530857e+18,0.023412400856614113,-0.10175357013940811,0.23343466222286224,10.407594680786133
1.7710606350031155e+18,0.02766920067369938,0.5081692934036255,0.3597288131713867,10.11789608001709
1.771060635053095e+18,0.009577799588441849,0.4800374209880829,0.406415730714798,10.17296314239502
1.771060635103086e+18,-0.017027199268341064,-0.4040215313434601,-0.5764040350914001,10.451289176940918
1.7710606351530924e+18,0.01383460033684969,0.42856210470199585,0.16879121959209442,10.1753568649292
1.771060635203179e+18,0.0,0.23822306096553802,0.4531026780605316,10.558429718017578
1.7710606352532096e+18,0.011706200428307056,0.3902548849582672,0.4692635238170624,10.190918922424316
1.7710606353031767e+18,-0.04256799817085266,0.1173158809542656,0.09876082092523575,9.8970308303833
1.7710606353531013e+18,-0.022348200902342796,-0.041299980133771896,0.5207388401031494,10.237606048583984
1.7710606354031887e+18,-0.06172360107302666,0.8200140595436096,0.25977087020874023,10.018536567687988
1.7710606354531656e+18,-0.011706200428307056,0.032920271158218384,0.3262099623680115,10.420164108276367
1.7710606355031923e+18,-0.035118598490953445,-0.30945056676864624,-0.4489127993583679,10.356718063354492
1.7710606355531773e+18,0.014898800291121006,-0.028730420395731926,0.26336216926574707,9.424775123596191
1.7710606356031022e+18,0.0,-0.08738835901021957,0.547075092792511,10.548852920532227
1.771060635653482e+18,0.03618279844522476,0.2621650695800781,-0.030526071786880493,10.071208953857422
1.7710606357031982e+18,0.010641999542713165,0.2513911724090576,0.5243301391601562,10.090362548828125
1.771060635753171e+18,0.015962999314069748,-1.092953085899353,-0.3711012601852417,9.823409080505371
1.771060635803196e+18,0.04469640180468559,0.09816227108240128,0.3693056106567383,9.973047256469727
1.77106063585326e+18,0.026605000719428062,0.47165772318840027,0.355538934469223,10.579977035522461
1.7710606359031409e+18,0.011706200428307056,-0.012569558806717396,-0.1885433793067932,10.019734382629395
1.7710606359531054e+18,0.0,-0.005386953707784414,0.035913024097681046,10.153809547424316
1.7710606360030298e+18,-0.007449400145560503,0.0694318488240242,0.08738835901021957,10.483610153198242
1.77106063605317e+18,0.028733400627970695,0.15562310814857483,0.6721721291542053,10.114903450012207
1.7710606361030907e+18,0.0,0.447715699672699,0.31543606519699097,10.208277702331543
1.7710606361531425e+18,-0.04043959826231003,0.4728548228740692,-0.591367781162262,10.625467300415039
1.7710606362031877e+18,-0.008513599634170532,0.1885433793067932,-0.17238251864910126,10.02571964263916
1.7710606362530785e+18,0.019155599176883698,-0.2256534993648529,0.7727285623550415,10.190918922424316
1.771060636303187e+18,0.01383460033684969,0.9097966551780701,0.1628057062625885,10.450091361999512
1.7710606363531953e+18,-0.009577799588441849,0.25977087020874023,0.773327112197876,9.565434455871582
1.7710606364031777e+18,-0.028733400627970695,-0.29807811975479126,-0.6039373874664307,9.849745750427246
1.7710606364531988e+18,-0.03299019858241081,0.23942016065120697,0.14245499670505524,10.375272750854492
1.7710606365030758e+18,-0.020219799131155014,0.055665187537670135,0.5195417404174805,10.638036727905273
1.7710606365530527e+18,0.012770400382578373,0.6470329761505127,0.24420857429504395,9.544485092163086
1.7710606366030264e+18,-0.02766920067369938,0.18614917993545532,-0.1825578808784485,10.04188060760498
1.77106063665303e+18,-0.008513599634170532,-0.8319850564002991,0.12389993667602539,10.118494987487793
1.7710606367031823e+18,0.04043959826231003,1.083974838256836,0.3130418658256531,10.084976196289062
1.7710606367530301e+18,0.028733400627970695,0.4423287510871887,0.12629413604736328,10.432733535766602
1.7710606368031775e+18,0.008513599634170532,-0.166995570063591,0.009576806798577309,10.18912410736084
1.7710606368530186e+18,0.06172360107302666,0.6111199855804443,0.23283611238002777,9.870695114135742
1.7710606369032566e+18,0.04469640180468559,0.09457096457481384,0.22026655077934265,10.567407608032227
1.7710606369532022e+18,0.03405439853668213,0.5626373887062073,0.21308395266532898,9.546878814697266
1.771060637003174e+18,0.04576060175895691,0.1412578970193863,0.21847090125083923,9.411606788635254
1.7710606370530916e+18,-0.023412400856614113,-0.016160860657691956,-0.314238965511322,10.161590576171875
1.7710606371031053e+18,0.029797600582242012,0.7044938206672668,0.13527239859104156,10.434529304504395
1.771060637153087e+18,0.012770400382578373,0.3776853084564209,0.5105634927749634,10.443507194519043
1.7710606372030717e+18,0.05533840134739876,1.2802993059158325,0.19931729137897491,10.22383975982666
1.7710606372531674e+18,-0.03086180053651333,0.12330138683319092,0.011971008032560349,10.556035041809082
1.771060637303086e+18,0.0,-0.2753331959247589,0.608127236366272,10.157999038696289
1.7710606373532332e+18,0.041503798216581345,0.750582218170166,0.558447539806366,9.677363395690918
1.7710606374032143e+18,-0.02447660081088543,0.2256534993648529,-0.14065934717655182,10.702679634094238
1.7710606374531768e+18,-0.026605000719428062,0.4866214990615845,0.18614917993545532,10.300454139709473
1.771060637503212e+18,-0.06278780102729797,0.5243301391601562,0.08978256583213806,10.160991668701172
1.771060637553034e+18,0.015962999314069748,0.2914940416812897,0.45848962664604187,10.548254013061523
1.7710606376031424e+18,0.041503798216581345,1.0875661373138428,0.20530278980731964,10.086173057556152
1.771060637653107e+18,-0.020219799131155014,-0.06643909960985184,0.15981295704841614,10.035296440124512
1.7710606377031844e+18,-0.014898800291121006,-0.5213373899459839,-0.4405331015586853,10.003573417663574
1.7710606377531581e+18,0.008513599634170532,0.7703343629837036,0.29628247022628784,10.053851127624512
1.771060637803174e+18,0.004256799817085266,-0.17896656692028046,0.6937199234962463,10.430339813232422
1.7710606378534612e+18,0.043632201850414276,0.9469067454338074,0.2885012924671173,10.030508041381836
1.7710606379031375e+18,0.0,0.3645172119140625,-0.02513911761343479,9.91738224029541
1.7710606379531753e+18,-0.007449400145560503,-0.23044191300868988,-0.6434416770935059,9.958083152770996
1.7710606380031867e+18,0.07662239670753479,0.8212111592292786,0.3902548849582672,9.945513725280762
1.771060638053176e+18,0.028733400627970695,0.2603694200515747,-0.11791443079710007,10.156203269958496
1.771060638103028e+18,0.0,0.21966800093650818,-0.21188685297966003,10.234015464782715
1.7710606381530847e+18,0.022348200902342796,0.6721721291542053,-0.010175356641411781,9.79408073425293
1.7710606382031122e+18,0.012770400382578373,1.048061728477478,0.5829880833625793,8.451531410217285
1.7710606382531057e+18,0.03405439853668213,0.30226796865463257,0.12330138683319092,9.59596061706543
1.771060638303133e+18,-0.031925998628139496,0.6979097723960876,0.31543606519699097,9.727641105651855
1.7710606383530289e+18,-0.035118598490953445,0.7912836670875549,-0.6943184733390808,10.609306335449219
1.7710606384031555e+18,-0.029797600582242012,-0.02214636467397213,0.29209259152412415,9.755773544311523
1.7710606384530957e+18,-0.01809139922261238,0.4668693244457245,0.8619126081466675,9.92097282409668
1.771060638503076e+18,-0.028733400627970695,0.4034229815006256,-0.25917232036590576,10.029909133911133
1.7710606385530289e+18,-0.03937539830803871,0.05506663769483566,-0.14484919607639313,10.234613418579102
1.7710606386032064e+18,-0.04043959826231003,-0.5045779943466187,-0.19632454216480255,10.515932083129883
1.7710606386530906e+18,0.023412400856614113,1.213860273361206,0.7146691679954529,10.121487617492676
1.7710606387030858e+18,0.031925998628139496,0.7362170219421387,0.44173020124435425,10.347739219665527
1.7710606387530765e+18,-0.005320999771356583,-0.09277531504631042,-0.058059390634298325,9.822212219238281
1.77106063880309e+18,0.028733400627970695,0.06464344263076782,0.2017114907503128,10.033500671386719
1.771060638853088e+18,0.03618279844522476,0.40282443165779114,0.4758475720882416,9.951498985290527
1.7710606389030879e+18,0.038311198353767395,0.5117605924606323,-0.15083470940589905,9.713275909423828
1.7710606389530301e+18,0.03299019858241081,-0.40940847992897034,0.38127660751342773,10.222043991088867
1.771060639003089e+18,0.0,0.6889315247535706,-0.4920084476470947,9.903017044067383
1.771060639053043e+18,0.046824801713228226,0.23942016065120697,0.2693476974964142,10.053253173828125
1.7710606391030833e+18,0.022348200902342796,-0.3770867586135864,0.5740098357200623,9.909600257873535
1.7710606391530463e+18,0.008513599634170532,0.07781155407428741,0.38067805767059326,9.192537307739258
1.7710606392030848e+18,0.0,0.26994624733924866,0.18614917993545532,10.428544044494629
1.771060639253059e+18,-0.02128399908542633,0.2819172441959381,-0.8254010081291199,10.198700904846191
1.7710606393030344e+18,0.04576060175895691,0.2238578498363495,0.801459014415741,10.245387077331543
1.7710606393530875e+18,-0.008513599634170532,-0.07302314788103104,0.15263035893440247,9.932944297790527
1.7710606394030758e+18,-0.01383460033684969,0.3405751883983612,-0.29388824105262756,10.323797225952148
1.7710606394530836e+18,0.010641999542713165,-0.06643909960985184,0.33339259028434753,10.523115158081055
1.7710606395031457e+18,0.0,0.5835866332054138,0.2819172441959381,10.335768699645996
1.771060639553022e+18,0.0063852001912891865,0.32680851221084595,0.48722004890441895,9.720458984375
1.7710606396030313e+18,-0.04895320162177086,0.4842272996902466,0.264559268951416,9.7605619430542
1.7710606396530954e+18,-0.07023719698190689,0.5267243385314941,-0.24001871049404144,9.90241813659668
1.7710606397030725e+18,0.004256799817085266,0.19153612852096558,0.10654197633266449,10.641029357910156
1.7710606397534275e+18,-0.009577799588441849,0.08439560979604721,0.3794809579849243,10.044873237609863
1.7710606398030822e+18,0.004256799817085266,0.5404910445213318,0.2621650695800781,10.360907554626465
1.771060639853258e+18,-0.008513599634170532,0.08798690885305405,-0.08319851011037827,9.612719535827637
1.771060639903089e+18,0.011706200428307056,-0.9684545993804932,0.043095629662275314,9.993996620178223
1.7710606399531116e+18,0.05853100121021271,1.3365631103515625,0.09157821536064148,9.8599214553833
1.7710606400030833e+18,0.029797600582242012,0.6224924325942993,0.3130418658256531,10.193313598632812
1.7710606400531103e+18,0.010641999542713165,0.21428105235099792,-0.4231751561164856,10.23880386352539
1.7710606401031066e+18,0.043632201850414276,0.023343466222286224,0.1825578808784485,10.160393714904785
1.771060640153095e+18,0.02766920067369938,-0.5937620401382446,0.6548141837120056,10.56381607055664
1.7710606402032138e+18,0.059595201164484024,0.6075286865234375,0.5746083855628967,10.04846477508545
1.7710606402530898e+18,-0.020219799131155014,0.545877993106842,-0.020949264988303185,9.871293067932129
1.7710606403031877e+18,-0.05853100121021271,0.25318682193756104,-0.7044938206672668,10.015543937683105
1.7710606403531018e+18,0.0,0.3597288131713867,0.41120412945747375,10.354323387145996
1.7710606404030884e+18,-0.038311198353767395,0.0999579206109047,0.4381389021873474,10.074800491333008
1.7710606404530284e+18,-0.0063852001912891865,0.8858546018600464,0.016759412363171577,10.016142845153809
1.771060640503087e+18,-0.04576060175895691,-0.2914940416812897,0.014963760040700436,10.229227066040039
1.7710606405532058e+18,-0.009577799588441849,-1.0636241436004639,-0.05267243832349777,11.51730728149414
1.7710606406030866e+18,-0.010641999542713165,0.9445125460624695,0.6147112846374512,10.038289070129395
1.7710606406537613e+18,0.008513599634170532,-0.16639702022075653,0.3926490843296051,10.004770278930664
1.771060640703107e+18,-0.02447660081088543,0.4878185987472534,-0.07182604819536209,9.97184944152832
1.771060640753095e+18,0.0,-0.3669114112854004,0.06464344263076782,10.296862602233887
1.7710606408032077e+18,0.007449400145560503,0.2783259451389313,0.46806642413139343,10.703278541564941
1.7710606408530153e+18,0.007449400145560503,0.6745663285255432,0.34835633635520935,9.857526779174805
1.7710606409032e+18,0.035118598490953445,-0.15502455830574036,0.15083470940589905,10.198101997375488
1.7710606409530834e+18,-0.03618279844522476,-0.11252747476100922,-0.46746787428855896,9.98801040649414
1.7710606410030953e+18,0.06810879707336426,0.8990226984024048,0.3010708689689636,9.906009674072266
1.7710606410530893e+18,0.026605000719428062,-0.6883329749107361,0.7529764175415039,9.922170639038086
1.7710606411031017e+18,0.0,1.2970587015151978,0.17417816817760468,9.945513725280762
1.7710606411530988e+18,0.017027199268341064,0.20470423996448517,0.166995570063591,10.448295593261719
1.7710606412030748e+18,0.0,-0.04967968538403511,-0.3298012912273407,10.322600364685059
1.7710606412530836e+18,0.02447660081088543,0.6572083830833435,0.5434837937355042,10.001777648925781
1.7710606413031014e+18,0.012770400382578373,0.14664484560489655,0.016759412363171577,10.344746589660645
1.771060641353083e+18,-0.004256799817085266,0.5554547905921936,0.07422025501728058,10.252570152282715
1.7710606414033595e+18,0.0,-0.1951274424791336,-0.30945056676864624,9.905410766601562
1.771060641453024e+18,0.009577799588441849,0.48482584953308105,0.9433154463768005,9.908403396606445
1.7710606415030405e+18,0.06278780102729797,1.2814964056015015,0.6039373874664307,10.25975227355957
1.771060641553027e+18,-0.020219799131155014,-0.08858545869588852,0.03651157394051552,10.550647735595703
1.7710606416031416e+18,-0.050017401576042175,-0.3148375153541565,-0.3106476664543152,10.499771118164062
1.7710606416530465e+18,-0.04256799817085266,0.74040687084198,-0.15981295704841614,9.217676162719727
1.7710606417030966e+18,-0.0063852001912891865,-0.2537853717803955,0.6254851818084717,10.588356971740723
1.7710606417531013e+18,-0.043632201850414276,0.8086416125297546,0.13946224749088287,10.259154319763184
1.7710606418030922e+18,-0.031925998628139496,0.28371289372444153,0.10833762586116791,10.038887977600098
1.771060641853105e+18,-0.007449400145560503,-0.4537012279033661,-0.42197805643081665,10.34833812713623
1.7710606419031012e+18,0.007449400145560503,0.8008604645729065,0.23403321206569672,10.19151782989502
1.7710606419530883e+18,0.02766920067369938,0.23762451112270355,0.12270283699035645,10.701482772827148
1.7710606420030492e+18,0.0,0.37648820877075195,-0.39384618401527405,9.879075050354004
1.7710606420534106e+18,0.035118598490953445,-0.07302314788103104,0.04369417950510979,10.295665740966797
1.771060642103027e+18,0.01383460033684969,-0.6165069341659546,0.4291606545448303,10.341155052185059
1.7710606421531592e+18,0.053210001438856125,0.8996212482452393,0.4100070297718048,9.895235061645508
1.7710606422030769e+18,0.031925998628139496,-0.05446808785200119,0.13407529890537262,9.931148529052734
1.7710606422537585e+18,-0.05108160153031349,-0.6141127347946167,-0.7984662652015686,9.604339599609375
1.771060642303012e+18,0.025540800765156746,0.7751227617263794,0.3010708689689636,10.171765327453613
1.7710606423530317e+18,0.005320999771356583,-0.005985504016280174,0.09816227108240128,10.339360237121582
1.7710606424031578e+18,-0.014898800291121006,0.7661445140838623,0.5752069354057312,10.209474563598633
1.771060642453195e+18,-0.007449400145560503,-0.15023615956306458,0.13826514780521393,10.139444351196289
1.7710606425031683e+18,-0.022348200902342796,0.05686229094862938,0.4279635548591614,10.606911659240723
1.7710606425531692e+18,0.025540800765156746,0.6883329749107361,0.21667525172233582,9.858125686645508
1.771060642603175e+18,-0.011706200428307056,0.4273650050163269,0.27473464608192444,9.824606895446777
1.7710606426531886e+18,-0.03405439853668213,-0.38786065578460693,-0.5752069354057312,9.943717956542969
1.7710606427030963e+18,-0.007449400145560503,0.08559270948171616,0.2950853407382965,10.269927978515625
1.7710606427531791e+18,-0.03086180053651333,-0.4489127993583679,0.22744916379451752,10.541669845581055
1.7710606428030436e+18,0.010641999542713165,1.1797428131103516,0.3058592677116394,10.0580415725708
1.7710606428531692e+18,0.004256799817085266,0.12509703636169434,0.4339490532875061,10.420164108276367
1.7710606429032374e+18,-0.02128399908542633,-0.0077811554074287415,-0.619499683380127,10.232817649841309
1.77106064295319e+18,0.04043959826231003,0.8547300100326538,0.3705027103424072,9.923965454101562
1.7710606430030733e+18,0.026605000719428062,0.08798690885305405,0.4692635238170624,10.452486038208008
1.7710606430535887e+18,0.0063852001912891865,0.21787235140800476,0.15442600846290588,9.712079048156738
1.7710606431031962e+18,0.028733400627970695,0.14425064623355865,-0.011971008032560349,9.966463088989258
1.7710606431530284e+18,0.022348200902342796,-0.424970805644989,-0.3597288131713867,10.171167373657227
1.7710606432036255e+18,0.056402601301670074,0.9846154451370239,0.17956513166427612,10.125677108764648
1.771060643253105e+18,0.028733400627970695,-0.15322890877723694,0.24001871049404144,10.02691650390625
1.7710606433031227e+18,0.022348200902342796,0.4638765752315521,-0.04728548228740692,10.193313598632812
1.7710606433530245e+18,0.01383460033684969,0.3292027413845062,0.013168109580874443,10.307636260986328
1.7710606434030103e+18,0.01383460033684969,0.10295066982507706,0.7559691667556763,10.58117389678955
1.771060643453105e+18,0.06065940111875534,0.8415618538856506,0.5243301391601562,9.873687744140625
1.771060643503216e+18,-0.005320999771356583,0.13287819921970367,0.11911153048276901,10.25735855102539
1.7710606435531817e+18,-0.041503798216581345,-0.3627215623855591,-0.3280056416988373,10.181342124938965
1.7710606436030262e+18,-0.01809139922261238,0.5740098357200623,0.3034650683403015,10.148422241210938
1.7710606436530903e+18,0.0,-0.016759412363171577,0.8649053573608398,10.402207374572754
1.771060643703166e+18,-0.09790640324354172,0.4076128304004669,-0.2825157940387726,10.15141487121582
1.7710606437531732e+18,-0.05853100121021271,0.4106055796146393,0.12689268589019775,10.646416664123535
1.7710606438031132e+18,-0.010641999542713165,-0.9660603404045105,0.05985504016280174,10.47403335571289
1.7710606438532234e+18,0.020219799131155014,0.8170213103294373,0.10474631935358047,10.04188060760498
1.77106064390316e+18,0.0,0.21188685297966003,0.3232172131538391,10.735001564025879
1.7710606439530324e+18,0.004256799817085266,-0.020949264988303185,-0.38546645641326904,10.219649314880371
1.771060644003165e+18,0.01383460033684969,0.23403321206569672,-0.004189853090792894,9.967061042785645
1.771060644053088e+18,0.026605000719428062,-1.059434175491333,0.3824737071990967,9.740809440612793
1.7710606441030154e+18,0.0649162009358406,0.6602011322975159,-0.005386953707784414,10.136451721191406
1.771060644153144e+18,0.03086180053651333,0.25079262256622314,0.4944026470184326,10.305841445922852
1.77106064420318e+18,0.031925998628139496,0.7170634269714355,0.19033902883529663,10.183736801147461
1.7710606442530668e+18,0.08087919652462006,1.1605892181396484,0.18375498056411743,10.355521202087402
1.7710606443030267e+18,0.017027199268341064,0.13587094843387604,0.9493009448051453,10.178349494934082
1.7710606443531635e+18,-0.028733400627970695,0.6368576288223267,-0.14664484560489655,9.691129684448242
1.771060644403077e+18,-0.03086180053651333,-0.02214636467397213,0.1646013706922531,9.983820915222168
1.7710606444531517e+18,-0.01383460033684969,-0.618302583694458,-0.4944026470184326,10.413579940795898
1.771060644503087e+18,0.035118598490953445,0.7445967197418213,0.5524620413780212,10.101137161254883
1.771060644553243e+18,-0.0063852001912891865,0.33997663855552673,-0.31124621629714966,10.456077575683594
1.771060644603013e+18,-0.03618279844522476,0.08619125932455063,-0.13287819921970367,9.719860076904297
1.7710606446533202e+18,0.0063852001912891865,0.4537012279033661,0.06165069341659546,10.102334022521973
1.7710606447032026e+18,-0.017027199268341064,-0.5907692313194275,0.7428010702133179,10.14902114868164
1.771060644753076e+18,0.03937539830803871,1.1695674657821655,0.44352585077285767,10.769119262695312
1.7710606448031654e+18,-0.017027199268341064,0.09876082092523575,0.21547815203666687,10.107721328735352
1.771060644853019e+18,-0.03937539830803871,-0.9427168965339661,-0.5404910445213318,10.050858497619629
1.7710606449032343e+18,-0.011706200428307056,-0.2256534993648529,0.14006079733371735,9.896432876586914
1.771060644953181e+18,0.0,0.0867898091673851,0.436343252658844,10.988786697387695
1.77106064500315e+18,-0.023412400856614113,0.25737667083740234,-0.10654197633266449,10.244789123535156
1.771060645053169e+18,-0.004256799817085266,-0.15682020783424377,0.13347674906253815,10.427347183227539
1.771060645103102e+18,0.022348200902342796,-0.35494038462638855,0.21547815203666687,10.398616790771484
1.7710606451531802e+18,0.023412400856614113,1.0660183429718018,0.0077811554074287415,10.111311912536621
1.7710606452030313e+18,0.025540800765156746,-0.0035913025494664907,0.2059013396501541,10.04846477508545
1.7710606452530703e+18,0.01809139922261238,0.016160860657691956,-0.3770867586135864,10.093355178833008
1.7710606453030876e+18,0.053210001438856125,0.7703343629837036,-0.04908113554120064,9.98681354522705
1.7710606453531745e+18,0.03618279844522476,-0.3992331326007843,0.08140285313129425,10.560823440551758
1.7710606454030743e+18,0.02128399908542633,0.9636661410331726,0.21428105235099792,10.125079154968262
1.7710606454533458e+18,0.017027199268341064,0.7918822169303894,0.3836708068847656,11.016919136047363
1.7710606455031572e+18,-0.04256799817085266,-0.5871779322624207,-0.7428010702133179,10.204686164855957
1.771060645553025e+18,0.059595201164484024,1.0618284940719604,0.1711854189634323,10.140042304992676
1.771060645603131e+18,0.0,0.018555063754320145,0.71766197681427,10.290877342224121
1.7710606456531727e+18,-0.04469640180468559,0.47644612193107605,0.3034650683403015,10.121487617492676
1.7710606457031434e+18,-0.04788900166749954,0.16340425610542297,-0.0802057534456253,9.964068412780762
1.7710606457530862e+18,-0.028733400627970695,-0.4638765752315521,-0.6260837316513062,10.155006408691406
1.771060645803151e+18,-0.05108160153031349,0.5853822827339172,0.6051344871520996,10.070012092590332
1.7710606458530335e+18,-0.015962999314069748,-0.0005985504249110818,0.09277531504631042,10.038887977600098
1.7710606459032038e+18,-0.038311198353767395,0.702099621295929,0.22325929999351501,10.445302963256836
1.7710606459531932e+18,-0.004256799817085266,0.08439560979604721,0.26815059781074524,10.609306335449219
1.7710606460030262e+18,-0.005320999771356583,-0.29807811975479126,-0.026336219161748886,10.71225643157959
1.7710606460531768e+18,0.0063852001912891865,0.4710591733455658,0.31842881441116333,10.003573417663574
1.771060646103034e+18,0.008513599634170532,0.3998316824436188,0.31184476613998413,10.249577522277832
1.7710606461531735e+18,0.0,-1.455674648284912,-0.27892449498176575,9.356539726257324
1.7710606462031506e+18,0.025540800765156746,-0.22864626348018646,-0.052073884755373,9.875483512878418
1.7710606462531026e+18,0.020219799131155014,0.07541735470294952,0.6811503767967224,10.296862602233887
1.7710606463031667e+18,0.004256799817085266,0.8194155097007751,-0.31364041566848755,10.827178001403809
1.7710606463530803e+18,-0.007449400145560503,-0.016160860657691956,-0.10893617570400238,9.64683723449707
1.7710606464031432e+18,0.0,-0.4381389021873474,-0.4076128304004669,10.15560531616211
1.7710606464531039e+18,0.07236559689044952,0.9163807034492493,0.48063597083091736,10.008959770202637
1.7710606465031798e+18,0.02447660081088543,0.34416648745536804,0.3537432849407196,10.83974838256836
1.7710606465530964e+18,-0.02766920067369938,-0.5728127360343933,-0.20889408886432648,10.307038307189941
1.7710606466031898e+18,0.02128399908542633,0.5847837328910828,0.041299980133771896,10.22383975982666
1.7710606466532006e+18,0.012770400382578373,-0.2412158101797104,-0.06224924325942993,10.273519515991211
1.7710606467030902e+18,0.0,0.4602852761745453,0.5776011347770691,10.15021800994873
1.7710606467530842e+18,-0.025540800765156746,0.4345476031303406,-0.17417816817760468,10.159794807434082
1.771060646803084e+18,-0.04788900166749954,-0.07003039866685867,-0.32680851221084595,10.218452453613281
1.7710606468530286e+18,-0.005320999771356583,0.17477671802043915,0.07003039866685867,9.859322547912598
1.771060646903052e+18,-0.012770400382578373,0.6224924325942993,0.6721721291542053,10.712855339050293
1.7710606469531784e+18,0.015962999314069748,1.3078325986862183,0.641047477722168,10.17296314239502
1.7710606470031475e+18,-0.03618279844522476,-0.20051439106464386,-0.04848258197307587,9.99339771270752
1.7710606470531743e+18,0.022348200902342796,-0.6141127347946167,0.3064578175544739,10.247182846069336
1.771060647103167e+18,0.03299019858241081,0.13766659796237946,0.12389993667602539,10.253169059753418
1.7710606471530662e+18,0.02766920067369938,0.25318682193756104,0.23582886159420013,10.427347183227539
1.7710606472030907e+18,0.0063852001912891865,-0.4944026470184326,-0.29807811975479126,9.646238327026367
1.7710606472530885e+18,0.04576060175895691,0.07781155407428741,-0.021547814831137657,10.264540672302246
1.7710606473031421e+18,0.05214580148458481,-0.5051765441894531,0.5668272376060486,10.09934139251709
1.7710606473530304e+18,0.023412400856614113,0.5309142470359802,0.30047231912612915,9.898826599121094
1.771060647403185e+18,0.01383460033684969,-0.07302314788103104,0.5991489887237549,10.098143577575684
1.7710606474531348e+18,0.009577799588441849,-0.07960720360279083,-1.01753568649292,10.146626472473145
1.771060647503069e+18,0.04469640180468559,0.4513069987297058,0.47824177145957947,10.124480247497559
1.7710606475531533e+18,-0.004256799817085266,0.3166331648826599,0.1628057062625885,10.813411712646484
1.771060647603033e+18,-0.022348200902342796,0.5117605924606323,0.5781996846199036,9.947907447814941
1.7710606476531779e+18,-0.01383460033684969,0.10953472554683685,-0.32441431283950806,10.51413631439209
1.7710606477031818e+18,0.007449400145560503,-0.7296329736709595,0.5081692934036255,10.522516250610352
1.7710606477531663e+18,0.03724699839949608,0.712274968624115,0.4147954285144806,10.056245803833008
1.771060647803199e+18,0.0,0.21368250250816345,0.1999158412218094,9.966463088989258
1.7710606478535378e+18,-0.03937539830803871,-0.5656301379203796,-0.47824177145957947,9.521739959716797
1.7710606479031462e+18,-0.05853100121021271,0.5710170865058899,0.04189852997660637,10.122684478759766
1.7710606479530967e+18,0.017027199268341064,-0.2627636194229126,0.8553285598754883,10.463858604431152
1.7710606480031593e+18,-0.019155599176883698,0.7745242118835449,0.23942016065120697,10.014945983886719
1.771060648053101e+18,-0.03618279844522476,0.1867477297782898,0.36810851097106934,9.86889934539795
1.7710606481031567e+18,-0.009577799588441849,-0.37828385829925537,-0.669179379940033,10.291476249694824
1.7710606481531653e+18,0.007449400145560503,-0.41599252820014954,0.004788403399288654,10.083778381347656
1.7710606482031654e+18,0.005320999771356583,0.243011474609375,0.3705027103424072,10.818799018859863
1.7710606482530074e+18,0.005320999771356583,0.6027402877807617,0.15143325924873352,10.487201690673828
1.7710606483030505e+18,0.02128399908542633,0.30705636739730835,-0.08140285313129425,10.160991668701172
1.771060648353025e+18,0.014898800291121006,-0.8038532137870789,-0.1909375786781311,10.102932929992676
1.771060648403152e+18,0.07023719698190689,0.9906009435653687,0.3274070918560028,10.390236854553223
1.7710606484531538e+18,0.038311198353767395,0.4572925269603729,0.6422445774078369,10.319008827209473
1.771060648503081e+18,-0.026605000719428062,0.0454898327589035,-0.7643488645553589,10.229227066040039
1.7710606485531622e+18,0.053210001438856125,0.6925228238105774,0.27234044671058655,9.650428771972656
1.7710606486030167e+18,0.010641999542713165,0.24899697303771973,0.15682020783424377,11.064803123474121
1.771060648653238e+18,0.004256799817085266,0.43993455171585083,0.5776011347770691,10.417770385742188
1.7710606487031647e+18,-0.029797600582242012,0.22086510062217712,-0.23582886159420013,9.367314338684082
1.7710606487530138e+18,-0.038311198353767395,0.04967968538403511,-0.4794388711452484,9.585186004638672
1.771060648803257e+18,-0.01809139922261238,0.20709843933582306,0.3824737071990967,9.895235061645508
1.7710606488530386e+18,-0.009577799588441849,0.7565677165985107,0.38486790657043457,10.270526885986328
1.771060648903257e+18,-0.014898800291121006,0.8547300100326538,0.17717091739177704,10.202291488647461
1.7710606489530857e+18,-0.01383460033684969,0.4626794755458832,-0.03890577703714371,9.8970308303833
1.7710606490031427e+18,-0.020219799131155014,-0.9115923047065735,0.0454898327589035,10.229825019836426
1.7710606490534543e+18,0.0,0.03950432687997818,0.3992331326007843,9.832985877990723
1.7710606491033746e+18,0.017027199268341064,0.41539397835731506,0.3100491166114807,10.295665740966797
1.7710606491531717e+18,0.0063852001912891865,-0.5267243385314941,-0.2861070930957794,10.308834075927734
1.7710606492031805e+18,0.020219799131155014,0.06165069341659546,0.29448679089546204,9.798869132995605
1.771060649253182e+18,0.02447660081088543,0.14484919607639313,0.629675030708313,10.707468032836914
1.771060649303084e+18,0.0,0.1454477459192276,0.0293289702385664,10.089165687561035
1.7710606493532342e+18,0.014898800291121006,0.05267243832349777,-0.1388636976480484,10.177152633666992
1.7710606494031775e+18,0.011706200428307056,-0.04489128291606903,-0.6847416758537292,10.202291488647461
1.7710606494533033e+18,0.04576060175895691,0.7799112200737,0.22445639967918396,9.870096206665039
1.7710606495030815e+18,-0.010641999542713165,-0.13946224749088287,0.42377370595932007,10.585962295532227
1.771060649553034e+18,-0.014898800291121006,0.578798234462738,0.14245499670505524,10.107721328735352
1.7710606496032607e+18,-0.004256799817085266,0.1430535465478897,-0.002394201699644327,10.020332336425781
1.7710606496531325e+18,-0.015962999314069748,-0.14006079733371735,-0.24899697303771973,10.132261276245117
1.7710606497030203e+18,0.056402601301670074,0.9169792532920837,0.6093243360519409,10.352527618408203
1.7710606497531412e+18,0.01809139922261238,0.3645172119140625,-0.011971008032560349,10.00955867767334
1.7710606498032348e+18,-0.019155599176883698,0.6428431272506714,0.09876082092523575,9.893440246582031
1.7710606498531656e+18,0.023412400856614113,-0.07182604819536209,0.1843535304069519,10.245387077331543
1.771060649903325e+18,0.0063852001912891865,0.34656068682670593,0.45489832758903503,10.28249740600586
1.7710606499531868e+18,0.017027199268341064,0.42197805643081665,0.30226796865463257,9.849146842956543
1.7710606500031839e+18,-0.050017401576042175,0.17956513166427612,0.06584054231643677,10.236409187316895
1.7710606500534863e+18,-0.017027199268341064,-0.9852139949798584,-0.058059390634298325,10.380660057067871
1.7710606501031145e+18,0.0,-0.09217676520347595,0.16101005673408508,9.948506355285645
1.7710606501531653e+18,-0.03618279844522476,-0.26815059781074524,0.10175357013940811,10.399813652038574
1.7710606502031798e+18,-0.005320999771356583,0.5644330382347107,0.07362169772386551,10.110115051269531
1.7710606502531392e+18,0.01809139922261238,-0.2172738015651703,0.2579752206802368,10.039485931396484
1.7710606503031603e+18,0.0,-0.8631097078323364,-0.23163901269435883,10.201693534851074
1.7710606503530857e+18,0.06385199725627899,1.4185644388198853,0.152031809091568,10.58117389678955
1.7710606504031524e+18,0.015962999314069748,0.4429273009300232,0.10235211998224258,10.291476249694824
1.7710606504530276e+18,0.022348200902342796,0.21368250250816345,-0.1825578808784485,10.22264289855957
1.771060650503153e+18,0.05108160153031349,0.15143325924873352,0.2555810213088989,9.782708168029785
1.7710606505530877e+18,0.022348200902342796,-0.6769605278968811,0.5261257886886597,9.952695846557617
1.7710606506032248e+18,0.059595201164484024,0.833182156085968,0.5003881454467773,10.26274585723877
1.7710606506530831e+18,-0.029797600582242012,0.08379705995321274,-0.12270283699035645,10.383652687072754
1.771060650703215e+18,-0.053210001438856125,0.46627077460289,-0.208295539021492,10.302847862243652
1.7710606507530877e+18,0.009577799588441849,0.2759317457675934,0.12330138683319092,10.363302230834961
1.7710606508030948e+18,-0.04256799817085266,0.18974047899246216,0.2998737692832947,10.44051456451416
1.7710606508531807e+18,0.020219799131155014,1.0079588890075684,0.3130418658256531,10.031704902648926
1.7710606509031875e+18,-0.03086180053651333,-0.26575639843940735,-0.03651157394051552,10.486004829406738
1.771060650953261e+18,-0.023412400856614113,-0.5764040350914001,0.304063618183136,10.359111785888672
1.7710606510030671e+18,-0.019155599176883698,0.12389993667602539,0.04429272934794426,9.5408935546875
1.77106065105351e+18,-0.011706200428307056,0.6003460884094238,0.2890998423099518,10.393828392028809
1.771060651103096e+18,-0.005320999771356583,0.21428105235099792,0.07721300423145294,10.247182846069336
1.7710606511530314e+18,0.0,-0.24061726033687592,-0.04908113554120064,10.082581520080566
1.771060651203145e+18,0.0,-0.47165772318840027,0.47465047240257263,10.000580787658691
1.771060651253209e+18,0.009577799588441849,0.9564835429191589,0.1843535304069519,9.829395294189453
1.7710606513031903e+18,0.005320999771356583,-0.20470423996448517,0.07062894850969315,10.187926292419434
1.7710606513530893e+18,-0.011706200428307056,0.17477671802043915,-0.42377370595932007,9.768940925598145
1.7710606514032689e+18,0.06917300075292587,0.45429977774620056,0.30047231912612915,10.254365921020508
1.7710606514532065e+18,0.0,0.05446808785200119,0.14844051003456116,10.073603630065918
1.7710606515031132e+18,0.009577799588441849,0.9696516990661621,-0.05686229094862938,10.039485931396484
1.7710606515532027e+18,0.03405439853668213,-0.07781155407428741,0.31842881441116333,9.822212219238281
1.7710606516031944e+18,0.0,0.2998737692832947,-0.4926069974899292,10.429740905761719
1.7710606516532598e+18,0.026605000719428062,0.27054479718208313,0.5363011956214905,10.49558162689209
1.7710606517032195e+18,0.015962999314069748,0.1999158412218094,0.23762451112270355,10.311826705932617
1.77106065175317e+18,0.01383460033684969,0.7918822169303894,0.0652419924736023,9.822212219238281
1.7710606518032177e+18,0.0063852001912891865,-0.1885433793067932,-0.19213467836380005,10.063427925109863
1.7710606518531423e+18,0.010641999542713165,0.21966800093650818,0.8762778043746948,10.542268753051758
1.7710606519032115e+18,0.0,0.3992331326007843,-0.13946224749088287,10.032303810119629
1.7710606519530304e+18,-0.03299019858241081,-0.19452887773513794,0.32441431283950806,10.428544044494629
1.771060652003662e+18,-0.041503798216581345,0.3381809890270233,-0.4489127993583679,10.58536434173584
1.7710606520530266e+18,-0.04469640180468559,-0.02693476900458336,0.3519476354122162,10.286687850952148
1.7710606521033334e+18,-0.028733400627970695,0.055665187537670135,-0.014365210197865963,10.37108325958252
1.7710606521532178e+18,-0.043632201850414276,-0.40222588181495667,0.6015431880950928,8.944138526916504
1.7710606522032376e+18,-0.010641999542713165,0.11192892491817474,0.1759738177061081,9.980828285217285
1.7710606522531028e+18,0.01383460033684969,-0.4297592043876648,-0.0694318488240242,10.293869972229004
1.771060652303202e+18,0.028733400627970695,0.5398924946784973,0.10175357013940811,10.29865837097168
1.7710606523531807e+18,0.028733400627970695,0.17717091739177704,0.19632454216480255,10.970830917358398
1.7710606524030364e+18,0.015962999314069748,0.7320271730422974,0.28550854325294495,10.131064414978027
1.7710606524530237e+18,0.04576060175895691,-0.23044191300868988,0.12629413604736328,10.247182846069336
1.7710606525031347e+18,0.02128399908542633,-0.568622887134552,-0.24660277366638184,10.159794807434082
1.7710606525530317e+18,0.050017401576042175,0.7475894689559937,0.3585317134857178,9.77372932434082
1.7710606526030776e+18,0.007449400145560503,0.12270283699035645,0.13168108463287354,9.996390342712402
1.7710606526532547e+18,-0.03405439853668213,-0.4854243993759155,-0.39145198464393616,10.398017883300781
1.7710606527031063e+18,0.009577799588441849,1.1731587648391724,0.2256534993648529,9.976638793945312
1.7710606527532244e+18,-0.015962999314069748,0.1256955862045288,0.1777694672346115,10.505158424377441
1.7710606528032369e+18,-0.031925998628139496,1.1779471635818481,-0.05746084079146385,9.933542251586914
1.7710606528530934e+18,-0.009577799588441849,-0.29388824105262756,-0.010175356641411781,10.384849548339844
1.7710606529031729e+18,-0.010641999542713165,-0.2735375463962555,0.4692635238170624,10.239401817321777
1.771060652953176e+18,0.04895320162177086,0.8924386501312256,0.40043023228645325,10.00955867767334
1.7710606530031713e+18,-0.022348200902342796,-0.19572599232196808,0.11252747476100922,10.034099578857422
1.7710606530534692e+18,-0.02766920067369938,0.010175356641411781,-0.7433996200561523,10.10173511505127
1.771060653103161e+18,-0.014898800291121006,0.27234044671058655,0.04967968538403511,10.103530883789062
1.771060653153087e+18,-0.025540800765156746,-0.3148375153541565,0.3232172131538391,10.609306335449219
1.771060653203147e+18,0.0,1.0486602783203125,0.26156651973724365,9.961674690246582
1.7710606532531748e+18,-0.010641999542713165,0.009576806798577309,0.11133037507534027,10.136451721191406
1.7710606533030313e+18,-0.022348200902342796,-0.11851298063993454,-0.424970805644989,10.046070098876953
1.7710606533532593e+18,0.023412400856614113,0.5404910445213318,0.35075053572654724,10.04846477508545
1.7710606534031734e+18,0.01383460033684969,-0.05147533491253853,0.5991489887237549,10.437521934509277
1.7710606534536054e+18,0.014898800291121006,0.5404910445213318,-0.10474631935358047,9.877279281616211
1.771060653503002e+18,0.05214580148458481,0.4531026780605316,0.132279634475708,10.193912506103516
1.7710606535530312e+18,0.04043959826231003,-0.10295066982507706,-0.43335050344467163,10.198101997375488
1.7710606536033272e+18,0.053210001438856125,0.8188169598579407,0.3621230125427246,10.125079154968262
1.771060653653188e+18,0.03299019858241081,0.26755204796791077,-0.0586579404771328,10.378864288330078
1.7710606537032358e+18,0.009577799588441849,0.20949263870716095,0.008978256024420261,9.856927871704102
1.7710606537531139e+18,0.03086180053651333,0.04429272934794426,0.03890577703714371,10.202291488647461
1.7710606538031004e+18,-0.005320999771356583,0.2795230448246002,0.5680243372917175,10.338761329650879
1.7710606538531638e+18,0.05108160153031349,0.9768342971801758,0.49799394607543945,10.157400131225586
1.7710606539030845e+18,-0.0063852001912891865,-0.060453593730926514,0.181959331035614,10.177152633666992
1.7710606539530248e+18,-0.041503798216581345,-0.15682020783424377,-0.18375498056411743,10.509347915649414
1.7710606540031375e+18,-0.04469640180468559,0.28371289372444153,0.264559268951416,10.001178741455078
1.7710606540531144e+18,-0.019155599176883698,-0.08798690885305405,0.8565256595611572,10.441113471984863
1.7710606541030833e+18,-0.06065940111875534,0.28072014451026917,0.27054479718208313,10.657788276672363
1.7710606541530086e+18,-0.043632201850414276,0.1735796183347702,0.33698388934135437,10.114304542541504
1.7710606542030735e+18,0.004256799817085266,-0.9247604012489319,-0.2753331959247589,10.02811336517334
1.7710606542531779e+18,0.03299019858241081,0.9846154451370239,0.39384618401527405,10.221445083618164
1.771060654303182e+18,0.0,0.07721300423145294,0.1304839849472046,10.6709566116333
1.7710606543530314e+18,0.028733400627970695,0.6817489266395569,0.10115502029657364,10.187926292419434
1.7710606544031652e+18,0.010641999542713165,-0.12389993667602539,0.0802057534456253,10.017938613891602
1.7710606544531763e+18,0.012770400382578373,0.3711012601852417,0.2627636194229126,10.912771224975586
1.7710606545030113e+18,0.07981500029563904,1.191115379333496,0.20889408886432648,10.430937767028809
1.771060654553084e+18,0.031925998628139496,-0.1711854189634323,0.01975216343998909,10.06701946258545
1.7710606546031665e+18,-0.01809139922261238,-0.6482300758361816,0.44651859998703003,10.193912506103516
1.771060654653067e+18,0.0,0.7457938194274902,-0.1107318252325058,10.398616790771484
1.7710606547030848e+18,0.0,0.4171896278858185,0.3447650372982025,10.273519515991211
1.7710606547531325e+18,-0.04256799817085266,0.13108253479003906,-0.6721721291542053,11.416152000427246
1.7710606548030676e+18,-0.03299019858241081,-0.0454898327589035,0.13706804811954498,10.338162422180176
1.7710606548530043e+18,0.026605000719428062,-0.34656068682670593,0.5153518915176392,10.392032623291016
1.771060654903168e+18,0.015962999314069748,0.9911994934082031,0.45429977774620056,10.15141487121582
1.7710606549533455e+18,0.008513599634170532,-0.375291109085083,-0.03651157394051552,10.33098030090332
1.7710606550030764e+18,-0.015962999314069748,0.08319851011037827,-0.7601590156555176,10.004171371459961
1.771060655053534e+18,-0.004256799817085266,0.22266075015068054,-0.11192892491817474,10.062231063842773
1.7710606551031432e+18,-0.01383460033684969,-0.7577648162841797,0.8702923059463501,10.143034934997559
1.7710606551531535e+18,0.02766920067369938,1.070208191871643,0.08140285313129425,10.01195240020752
1.7710606552031048e+18,-0.023412400856614113,0.09157821536064148,0.03172317147254944,10.038289070129395
1.7710606552530998e+18,-0.03299019858241081,-0.5482721924781799,-0.4638765752315521,10.260351181030273
1.7710606553031926e+18,0.023412400856614113,0.7793126106262207,0.536899745464325,10.24658489227295
1.771060655353037e+18,0.004256799817085266,0.08559270948171616,0.46507367491722107,10.766724586486816
1.7710606554032064e+18,0.011706200428307056,0.18614917993545532,0.12868833541870117,9.949105262756348
1.7710606554530883e+18,0.014898800291121006,0.14844051003456116,0.2190694510936737,9.888052940368652
1.7710606555030487e+18,0.03405439853668213,0.03770867735147476,0.017956512048840523,10.292074203491211
1.771060655553187e+18,0.059595201164484024,0.7092822194099426,0.40880993008613586,10.031704902648926
1.7710606556030193e+18,0.01809139922261238,-0.12629413604736328,0.021547814831137657,10.222043991088867
1.7710606556531548e+18,0.017027199268341064,0.45250412821769714,-0.34835633635520935,10.339958190917969
1.7710606557031974e+18,0.03724699839949608,0.21368250250816345,0.2795230448246002,10.269927978515625
1.7710606557530056e+18,0.022348200902342796,0.05267243832349777,0.14664484560489655,10.626065254211426
1.7710606558030326e+18,0.023412400856614113,0.547075092792511,0.363918662071228,10.001777648925781
1.7710606558538642e+18,-0.0063852001912891865,0.23942016065120697,-0.07541735470294952,10.15021800994873
1.7710606559031073e+18,-0.011706200428307056,-0.6482300758361816,-0.15562310814857483,10.235212326049805
1.771060655953055e+18,-0.029797600582242012,0.9965864419937134,0.3411737382411957,10.342352867126465
1.771060656003008e+18,0.0,-0.12030863016843796,0.36990416049957275,10.36569595336914
1.771060656053094e+18,0.020219799131155014,0.5494692921638489,-0.04369417950510979,9.602544784545898
1.7710606561030876e+18,-0.04256799817085266,-0.1478419452905655,0.035913024097681046,9.905410766601562
1.7710606561531748e+18,0.0,0.08619125932455063,0.3477577865123749,10.171765327453613
1.7710606562030213e+18,-0.029797600582242012,0.9636661410331726,0.40462008118629456,10.164583206176758
1.77106065625303e+18,-0.02128399908542633,0.22086510062217712,-0.104147769510746,10.25735855102539
1.771060656303163e+18,-0.026605000719428062,-0.5339069962501526,-0.4644751250743866,9.806650161743164
1.771060656353237e+18,0.007449400145560503,0.6368576288223267,0.047884032130241394,10.036493301391602
1.7710606564031908e+18,0.0063852001912891865,-0.47824177145957947,0.31543606519699097,10.493186950683594
1.7710606564530204e+18,0.012770400382578373,0.4489127993583679,0.3908534348011017,9.916783332824707
1.7710606565030362e+18,0.009577799588441849,0.08259996026754379,0.42018237709999084,10.316615104675293
1.7710606565531763e+18,0.012770400382578373,-0.8439561128616333,-0.13527239859104156,10.415375709533691
1.7710606566030275e+18,0.01383460033684969,0.18076223134994507,0.4339490532875061,9.935338020324707
1.7710606566534502e+18,0.011706200428307056,0.36571431159973145,0.32261866331100464,10.694300651550293
1.7710606567030697e+18,0.05427420139312744,0.7655459642410278,-0.014963760040700436,10.13405704498291
1.7710606567530586e+18,0.009577799588441849,-0.26575639843940735,0.12330138683319092,9.741408348083496
1.771060656803556e+18,0.023412400856614113,-0.36152446269989014,0.7230489253997803,10.214860916137695
1.771060656853177e+18,0.07662239670753479,0.6763619780540466,0.4034229815006256,10.087369918823242
1.771060656903072e+18,0.005320999771356583,-0.020949264988303185,-0.21607670187950134,9.928753852844238
1.7710606569530972e+18,-0.008513599634170532,-0.20290859043598175,-0.002394201699644327,9.784503936767578
1.7710606570031452e+18,0.014898800291121006,0.7493851184844971,0.019153613597154617,10.274117469787598
1.7710606570530908e+18,-0.007449400145560503,-0.4842272996902466,0.7631517648696899,10.339360237121582
1.7710606571030822e+18,-0.028733400627970695,0.9301473498344421,-0.08559270948171616,10.313023567199707
1.7710606571531904e+18,-0.022348200902342796,0.27413609623908997,0.19812019169330597,10.316615104675293
1.771060657203093e+18,-0.03618279844522476,-1.1755529642105103,-0.10295066982507706,9.437942504882812
1.771060657253175e+18,0.02128399908542633,0.7170634269714355,0.4171896278858185,9.903017044067383
1.7710606573030228e+18,-0.026605000719428062,0.046088382601737976,0.19572599232196808,10.42195987701416
1.7710606573532106e+18,-0.01383460033684969,1.0115501880645752,-0.10654197633266449,10.113107681274414
1.7710606574031616e+18,-0.008513599634170532,-0.06224924325942993,-0.05027823522686958,9.929951667785645
1.7710606574534236e+18,0.02447660081088543,-0.6500257253646851,0.10654197633266449,10.597334861755371
1.771060657503195e+18,0.02766920067369938,1.3060369491577148,0.24420857429504395,10.488997459411621
1.771060657553072e+18,0.028733400627970695,-0.21966800093650818,-0.11432313174009323,10.286088943481445
1.7710606576030804e+18,-0.017027199268341064,-0.33279404044151306,-0.1777694672346115,10.2962646484375
1.7710606576531743e+18,0.05853100121021271,0.8421604633331299,0.2687491476535797,10.04307746887207
1.7710606577031777e+18,0.03724699839949608,-0.4058171808719635,0.36750996112823486,10.48061752319336
1.7710606577530296e+18,0.04043959826231003,0.9050082564353943,0.13287819921970367,10.114304542541504
1.7710606578031724e+18,0.035118598490953445,0.22744916379451752,0.1693897694349289,10.010157585144043
1.7710606578531528e+18,0.019155599176883698,-0.8439561128616333,0.09696516394615173,10.830171585083008
1.7710606579032305e+18,0.0063852001912891865,0.8882488012313843,0.17178396880626678,10.444106101989746
1.7710606579532175e+18,0.0,0.01975216343998909,0.5542576909065247,10.371681213378906
1.771060658003036e+18,-0.038311198353767395,0.1586158573627472,-0.7254431247711182,9.95449161529541
1.7710606580530755e+18,-0.0063852001912891865,0.13826514780521393,-0.3944447338581085,9.941324234008789
1.771060658103104e+18,0.011706200428307056,-0.4082113802433014,0.43933600187301636,10.58895492553711
1.7710606581532393e+18,0.026605000719428062,0.7990648150444031,0.4291606545448303,9.807847023010254
1.771060658203024e+18,0.0,0.3381809890270233,0.7104793190956116,9.767146110534668
1.7710606582536067e+18,-0.0649162009358406,-0.6949170231819153,-0.9528922438621521,9.853935241699219
1.7710606583030285e+18,-0.014898800291121006,0.9397241473197937,0.7511807680130005,10.346542358398438
1.7710606583530245e+18,0.004256799817085266,-0.5518634915351868,0.7422025203704834,10.596736907958984
1.771060658403031e+18,-0.005320999771356583,0.8505401611328125,0.004189853090792894,10.18912410736084
1.771060658453086e+18,0.0,0.1280897855758667,0.20051439106464386,9.900622367858887
1.771060658503142e+18,-0.008513599634170532,0.3477577865123749,-0.3166331648826599,10.350133895874023
1.771060658553074e+18,0.0,-0.08499415963888168,0.19273322820663452,9.823409080505371
1.7710606586031708e+18,0.008513599634170532,0.2064998894929886,0.45250412821769714,10.346542358398438
1.7710606586531722e+18,0.04469640180468559,0.7703343629837036,0.4818330705165863,9.957484245300293
1.7710606587031647e+18,0.028733400627970695,-0.3315969407558441,0.026336219161748886,10.08318042755127
1.7710606587530854e+18,0.02447660081088543,-0.14903905987739563,0.4345476031303406,10.54645824432373
1.7710606588031516e+18,0.0713014006614685,1.1330559253692627,0.36092591285705566,10.04846477508545
1.7710606588532552e+18,0.038311198353767395,0.0586579404771328,0.40462008118629456,10.16877269744873
1.7710606589031982e+18,-0.025540800765156746,-0.32202011346817017,-0.38307225704193115,9.79408073425293
1.771060658953181e+18,0.008513599634170532,0.2148796021938324,0.038307227194309235,10.417770385742188
1.7710606590030236e+18,0.014898800291121006,0.3693056106567383,0.5811924338340759,10.463858604431152
1.7710606590538156e+18,0.0,0.8756792545318604,0.24241292476654053,9.929951667785645
1.7710606591031493e+18,-0.007449400145560503,0.27653029561042786,0.18614917993545532,10.263343811035156
1.771060659153106e+18,-0.050017401576042175,-0.12509703636169434,-0.4537012279033661,10.014945983886719
1.7710606592030144e+18,0.0,0.3579331338405609,0.010175356641411781,10.541070938110352
1.7710606592530258e+18,-0.03405439853668213,-0.6913257241249084,0.25677812099456787,10.619481086730957
1.7710606593032013e+18,0.008513599634170532,1.072602391242981,0.10474631935358047,10.572794914245605
1.7710606593530783e+18,-0.015962999314069748,0.1346738487482071,0.0802057534456253,10.038887977600098
1.7710606594032717e+18,0.0,-0.5979518890380859,0.3232172131538391,9.919177055358887
1.7710606594531697e+18,0.017027199268341064,-0.09397241473197937,0.18614917993545532,9.928753852844238
1.771060659503147e+18,0.004256799817085266,0.8720879554748535,0.3776853084564209,10.499173164367676
1.7710606595532037e+18,0.014898800291121006,0.5829880833625793,0.24779987335205078,9.996989250183105
1.7710606596030182e+18,0.01383460033684969,0.24241292476654053,0.03651157394051552,9.777320861816406
1.7710606596532378e+18,0.023412400856614113,-0.11552023142576218,0.5776011347770691,10.232219696044922
1.771060659703193e+18,-0.019155599176883698,0.4818330705165863,0.17417816817760468,10.137049674987793
1.7710606597531756e+18,0.010641999542713165,-0.0975637212395668,0.166995570063591,10.20887565612793
1.7710606598030228e+18,0.011706200428307056,-0.10893617570400238,-0.5811924338340759,10.339360237121582
1.771060659853047e+18,0.020219799131155014,-0.06643909960985184,0.23163901269435883,10.07898998260498
1.7710606599031736e+18,0.005320999771356583,0.2537853717803955,0.43335050344467163,10.14902114868164
1.771060659953032e+18,0.043632201850414276,0.5333084464073181,0.4626794755458832,9.99100399017334
1.7710606600030188e+18,-0.004256799817085266,0.33099839091300964,-0.2890998423099518,10.082581520080566
1.771060660053027e+18,0.0,-0.16340425610542297,-0.208295539021492,10.506355285644531
1.7710606601030764e+18,0.04788900166749954,0.6667851805686951,0.36152446269989014,10.007762908935547
1.7710606601531576e+18,0.0,0.5985504388809204,0.5907692313194275,10.26513957977295
1.7710606602030794e+18,-0.041503798216581345,0.13347674906253815,-0.011971008032560349,10.15560531616211
1.7710606602531776e+18,-0.020219799131155014,-0.2968810200691223,0.24181437492370605,10.180744171142578
1.7710606603030994e+18,0.0,-0.28790274262428284,0.8212111592292786,10.028712272644043
1.7710606603532288e+18,-0.014898800291121006,0.6117185354232788,0.7200561761856079,10.409390449523926
1.7710606604030943e+18,-0.03937539830803871,0.14065934717655182,0.11911153048276901,10.411784172058105
1.7710606604531617e+18,-0.023412400856614113,-0.536899745464325,-0.12629413604736328,10.410587310791016
1.7710606605030958e+18,0.008513599634170532,-0.1867477297782898,0.45669397711753845,10.084976196289062
1.7710606605531681e+18,-0.028733400627970695,0.5805938839912415,0.14664484560489655,10.555436134338379
1.7710606606030738e+18,0.017027199268341064,-0.12330138683319092,0.33937808871269226,9.965266227722168
1.7710606606538655e+18,0.012770400382578373,0.17178396880626678,-0.03890577703714371,10.02691650390625
1.7710606607030856e+18,0.02447660081088543,-0.9840168952941895,0.15322890877723694,10.071208953857422
1.771060660753218e+18,0.031925998628139496,0.9696516990661621,0.19452887773513794,9.901819229125977
1.7710606608031946e+18,0.01809139922261238,0.7050923705101013,0.1951274424791336,10.126276016235352
1.7710606608531046e+18,0.011706200428307056,-0.8517372608184814,-0.8631097078323364,10.257957458496094
1.7710606609031933e+18,0.06278780102729797,1.3054383993148804,0.2902969419956207,9.583989143371582
1.7710606609531044e+18,0.011706200428307056,-0.21368250250816345,0.6631938815116882,10.484209060668945
1.7710606610035474e+18,0.01383460033684969,0.39384618401527405,0.5758054852485657,10.314220428466797
1.7710606610531732e+18,-0.02766920067369938,0.2669534981250763,-0.020949264988303185,10.26394271850586
1.7710606611030354e+18,-0.03724699839949608,-0.14365209639072418,-0.5536591410636902,9.637260437011719
1.7710606611530952e+18,0.0063852001912891865,0.4878185987472534,0.45010989904403687,10.082581520080566
1.7710606612031631e+18,-0.020219799131155014,0.36571431159973145,0.18974047899246216,10.25855541229248
1.771060661253194e+18,-0.015962999314069748,0.7817068696022034,0.19632454216480255,9.947309494018555
1.7710606613030234e+18,-0.007449400145560503,0.38307225704193115,0.18136078119277954,10.448894500732422
1.7710606613531558e+18,-0.009577799588441849,-0.4495113492012024,0.35314473509788513,10.269927978515625
1.7710606614030774e+18,0.010641999542713165,0.761954665184021,0.42377370595932007,10.38844108581543
1.7710606614530432e+18,-0.0063852001912891865,0.416591078042984,0.6057330369949341,10.272322654724121
1.7710606615030264e+18,-0.015962999314069748,-0.8200140595436096,-0.6171054840087891,9.864110946655273
1.7710606615530263e+18,0.0,-0.25977087020874023,0.21547815203666687,10.071208953857422
1.7710606616030333e+18,-0.008513599634170532,0.2819172441959381,0.6709750294685364,10.470442771911621
1.77106066165307e+18,-0.009577799588441849,0.9457096457481384,0.013168109580874443,10.070611000061035
1.7710606617031514e+18,0.012770400382578373,-0.3728969097137451,-0.15502455830574036,10.367491722106934
1.7710606617530573e+18,0.0,0.07302314788103104,-0.1256955862045288,10.069413185119629
1.7710606618031741e+18,0.05533840134739876,0.14365209639072418,0.3818751573562622,10.270526885986328
1.7710606618531901e+18,0.02447660081088543,-0.026336219161748886,0.3471592366695404,10.354323387145996
1.7710606619031393e+18,0.0,0.5063736438751221,0.243011474609375,10.020931243896484
1.7710606619531395e+18,0.046824801713228226,0.6799532771110535,0.14484919607639313,10.072406768798828
1.77106066200309e+18,0.023412400856614113,0.19213467836380005,-0.43754035234451294,10.312424659729004
1.7710606620530012e+18,0.05533840134739876,0.4291606545448303,0.6075286865234375,9.973047256469727
1.7710606621030804e+18,0.01383460033684969,0.47405192255973816,0.05686229094862938,9.68155288696289
1.7710606621531904e+18,-0.020219799131155014,-0.375291109085083,-0.5081692934036255,10.611700057983398
1.77106066220304e+18,0.01383460033684969,-0.2890998423099518,0.14065934717655182,10.014347076416016
1.7710606622530542e+18,0.0063852001912891865,0.1478419452905655,0.7924807667732239,10.492588996887207
1.7710606623031741e+18,-0.04788900166749954,0.284311443567276,-0.3106476664543152,10.34953498840332
1.7710606623530862e+18,-0.046824801713228226,-0.0011971008498221636,-0.25079262256622314,10.116100311279297
1.7710606624031299e+18,-0.03299019858241081,-0.193331778049469,-0.104147769510746,9.81263542175293
1.7710606624531003e+18,-0.07555820047855377,0.5853822827339172,0.45070844888687134,10.346542358398438
1.7710606625030354e+18,-0.019155599176883698,-0.18315643072128296,0.5201402902603149,10.45787239074707
1.7710606625530214e+18,-0.035118598490953445,0.42197805643081665,0.05925649031996727,9.837176322937012
1.7710606626031918e+18,-0.004256799817085266,-0.009576806798577309,0.37828385829925537,9.955090522766113
1.7710606626532078e+18,0.008513599634170532,-0.132279634475708,-0.14365209639072418,10.336965560913086
1.7710606627032333e+18,0.026605000719428062,1.0935516357421875,0.38067805767059326,9.925761222839355
1.771060662753179e+18,0.015962999314069748,-0.0347159244120121,0.47884032130241394,10.392630577087402
1.7710606628031741e+18,0.020219799131155014,0.8888473510742188,0.1586158573627472,9.785700798034668
1.771060662853265e+18,0.05427420139312744,-0.31184476613998413,0.3974374830722809,9.735422134399414
1.7710606629031834e+18,0.01809139922261238,-0.790086567401886,0.5877764821052551,10.114903450012207
1.771060662953233e+18,0.06172360107302666,0.0628477931022644,0.29807811975479126,9.985017776489258
1.7710606630030185e+18,0.0,0.25258827209472656,-0.046088382601737976,10.092757225036621
1.7710606630530862e+18,-0.04576060175895691,0.0867898091673851,-0.7523778676986694,10.053851127624512
1.7710606631030838e+18,0.015962999314069748,0.2825157940387726,0.5321113467216492,9.816226959228516
1.7710606631532093e+18,-0.03299019858241081,0.2172738015651703,0.3705027103424072,9.995792388916016
1.7710606632031685e+18,-0.014898800291121006,0.8481459617614746,0.4171896278858185,9.809642791748047
1.7710606632530358e+18,-0.008513599634170532,-0.1885433793067932,0.25318682193756104,10.053253173828125
1.77106066330302e+18,0.014898800291121006,0.20051439106464386,0.40222588181495667,10.606911659240723
1.7710606633530772e+18,0.015962999314069748,0.5871779322624207,0.3992331326007843,9.726444244384766
1.7710606634030794e+18,-0.009577799588441849,0.2974795699119568,0.05925649031996727,9.931747436523438
1.7710606634530926e+18,-0.010641999542713165,-0.6847416758537292,-0.22744916379451752,9.812036514282227
1.7710606635032238e+18,-0.020219799131155014,-0.16759411990642548,-0.3489548861980438,9.913790702819824
1.7710606635530964e+18,-0.01383460033684969,-0.1586158573627472,0.7260416746139526,10.169371604919434
1.7710606636030868e+18,-0.012770400382578373,0.5303156971931458,0.0454898327589035,10.107122421264648
1.7710606636530903e+18,0.0,-0.30047231912612915,0.14425064623355865,10.241796493530273
1.7710606637030884e+18,-0.01809139922261238,-0.43694180250167847,-0.1604115068912506,10.023923873901367
1.771060663753081e+18,0.035118598490953445,0.6440402269363403,0.3597288131713867,10.136451721191406
1.7710606638030868e+18,0.025540800765156746,0.6542155742645264,0.40521863102912903,10.705672264099121
1.7710606638533755e+18,-0.01383460033684969,0.3315969407558441,0.1430535465478897,10.049062728881836
1.771060663903082e+18,0.04788900166749954,0.18495208024978638,0.17717091739177704,10.049062728881836
1.771060663953085e+18,0.04469640180468559,-0.32441431283950806,0.13706804811954498,10.43812084197998
1.7710606640031862e+18,0.03299019858241081,0.9331400990486145,0.23523031175136566,9.930549621582031
1.7710606640531302e+18,0.03724699839949608,0.14245499670505524,0.3016694188117981,9.930549621582031
1.771060664103006e+18,0.005320999771356583,0.6039373874664307,-0.7571662664413452,10.17296314239502
1.7710606641530854e+18,0.019155599176883698,0.16998831927776337,0.3974374830722809,10.069413185119629
1.7710606642030833e+18,-0.022348200902342796,-0.20111294090747833,0.22744916379451752,10.553641319274902
1.7710606642530803e+18,0.03405439853668213,0.6703764796257019,0.6961141228675842,10.006566047668457
1.7710606643030103e+18,-0.025540800765156746,0.3405751883983612,-0.041299980133771896,9.938929557800293
1.7710606643530819e+18,-0.06704460084438324,0.132279634475708,-0.45070844888687134,10.187926292419434
1.7710606644030845e+18,-0.0063852001912891865,0.6661866307258606,0.12030863016843796,10.074800491333008
1.7710606644530289e+18,-0.005320999771356583,-0.05027823522686958,0.5758054852485657,9.654019355773926
1.7710606645030047e+18,-0.041503798216581345,0.7577648162841797,0.2064998894929886,9.999981880187988
1.7710606645530803e+18,-0.04895320162177086,0.09816227108240128,0.11552023142576218,10.360309600830078
1.7710606646030881e+18,0.004256799817085266,-0.3214215636253357,0.8062474131584167,10.181941032409668
1.7710606646534584e+18,0.012770400382578373,1.106719732284546,0.07182604819536209,10.093954086303711
1.77106066470316e+18,-0.046824801713228226,-0.5321113467216492,0.295683890581131,10.228029251098633
1.7710606647530998e+18,-0.07662239670753479,0.5464765429496765,0.3190273642539978,10.633846282958984
1.771060664803058e+18,-0.07236559689044952,0.021547814831137657,0.08259996026754379,9.779715538024902
1.7710606648531735e+18,-0.08194340020418167,-0.8619126081466675,-0.35314473509788513,10.028712272644043
1.7710606649031767e+18,-0.0840718001127243,0.9780313968658447,-0.24001871049404144,10.07898998260498
1.7710606649531587e+18,-0.07875079661607742,0.11252747476100922,-0.21787235140800476,10.753557205200195
1.77106066500316e+18,-0.06065940111875534,-0.18614917993545532,0.9774328470230103,10.13166332244873
1.771060665053015e+18,-0.13408920168876648,0.9002197980880737,-0.32022446393966675,9.689932823181152
1.771060665103007e+18,-0.10535579919815063,-0.193331778049469,-0.23403321206569672,10.657788276672363
1.7710606651531546e+18,-0.0904569998383522,0.016759412363171577,0.8074445128440857,10.131064414978027
1.7710606652031823e+18,-0.08300759643316269,0.5811924338340759,-0.041299980133771896,9.78989028930664
1.7710606652531318e+18,-0.08194340020418167,0.5267243385314941,0.4902127981185913,10.155006408691406
1.771060665303066e+18,-0.1159977987408638,-0.42018237709999084,0.38067805767059326,9.882067680358887
1.7710606653530015e+18,-0.13302500545978546,0.34656068682670593,-0.363918662071228,9.809043884277344
1.771060665403088e+18,-0.08620020002126694,0.061052143573760986,-0.09217676520347595,9.983222007751465
1.77106066545354e+18,-0.13302500545978546,-0.26396071910858154,-0.22685061395168304,10.348937034606934
1.771060665503166e+18,-0.06810879707336426,0.46746787428855896,0.7876923680305481,10.220248222351074
1.771060665553228e+18,-0.11280520260334015,0.035913024097681046,-0.10354921966791153,10.52790355682373
1.7710606656031032e+18,-0.1096125990152359,0.6949170231819153,0.3280056416988373,9.888052940368652
1.7710606656530324e+18,-0.10642000287771225,-0.09935937076807022,0.22744916379451752,9.600150108337402
1.7710606657030833e+18,-0.0840718001127243,0.005985504016280174,-0.4800374209880829,9.925163269042969
1.7710606657531791e+18,-0.10535579919815063,0.24181437492370605,-0.10833762586116791,9.795876502990723
1.7710606658031887e+18,-0.04469640180468559,0.4800374209880829,0.11432313174009323,10.320206642150879
1.771060665853163e+18,-0.03086180053651333,0.08738835901021957,0.5069721937179565,10.54765510559082
1.77106066590318e+18,-0.04576060175895691,0.5542576909065247,0.1562216579914093,10.090961456298828
1.7710606659531592e+18,-0.005320999771356583,0.033518824726343155,-0.5015852451324463,10.177751541137695
1.7710606660030254e+18,0.04469640180468559,0.17657236754894257,0.7284358739852905,10.234613418579102
1.7710606660531092e+18,0.05427420139312744,0.5518634915351868,-0.16519992053508759,10.211270332336426
1.7710606661030804e+18,0.015962999314069748,-0.5919663310050964,0.4279635548591614,10.088566780090332
1.7710606661531812e+18,-0.0063852001912891865,0.7463923692703247,-0.5303156971931458,10.447697639465332
1.7710606662030815e+18,-0.007449400145560503,-0.10534487664699554,-0.355538934469223,10.323797225952148
1.771060666253764e+18,0.03086180053651333,0.3214215636253357,1.1127052307128906,10.908581733703613
1.7710606663030868e+18,-0.0063852001912891865,0.4124012291431427,-0.13347674906253815,10.200495719909668
1.7710606663531843e+18,-0.01809139922261238,0.608127236366272,0.26336216926574707,10.639233589172363
1.771060666403152e+18,-0.038311198353767395,0.40701428055763245,-0.25917232036590576,10.082581520080566
1.7710606664531722e+18,0.029797600582242012,0.12988543510437012,0.568622887134552,10.196905136108398
1.7710606665031846e+18,0.03937539830803871,0.05386953800916672,1.3204022645950317,10.144830703735352
1.77106066655308e+18,-0.08194340020418167,0.36990416049957275,-0.43694180250167847,10.11789608001709
1.7710606666031424e+18,-0.04895320162177086,0.35494038462638855,0.043095629662275314,10.38963794708252
1.7710606666531653e+18,-0.010641999542713165,-0.20470423996448517,-0.1388636976480484,10.036493301391602
1.7710606667030108e+18,-0.014898800291121006,0.5835866332054138,0.06883329898118973,10.520122528076172
1.771060666753002e+18,0.02128399908542633,-0.10534487664699554,0.6033388376235962,10.238204956054688
1.7710606668030213e+18,0.01383460033684969,0.497395396232605,-0.11133037507534027,10.264540672302246
1.7710606668530652e+18,0.0,-0.26815059781074524,-0.6733692288398743,10.109516143798828
1.7710606669030712e+18,0.0,0.24001871049404144,-0.375291109085083,9.316436767578125
1.7710606669530857e+18,0.03405439853668213,0.4620809257030487,0.39803603291511536,10.176553726196289
1.7710606670030925e+18,0.009577799588441849,-0.37169981002807617,-0.3381809890270233,10.418368339538574
1.7710606670530253e+18,0.01383460033684969,0.4710591733455658,-0.2693476974964142,10.619481086730957
1.7710606671031007e+18,-0.010641999542713165,0.30945056676864624,-0.6177040338516235,10.627861022949219
1.7710606671530383e+18,0.05853100121021271,-0.0347159244120121,1.170166015625,10.332776069641113
1.7710606672031032e+18,0.019155599176883698,-0.014365210197865963,0.25498247146606445,10.454879760742188
1.7710606672530168e+18,-0.03618279844522476,-0.12509703636169434,-0.7571662664413452,9.9371337890625
1.7710606673030141e+18,0.01809139922261238,0.10594342648983002,0.32202011346817017,10.384251594543457
1.7710606673530834e+18,-0.01383460033684969,0.6189011335372925,0.3429693877696991,9.998186111450195
1.771060667403083e+18,-0.015962999314069748,0.7206547260284424,0.6625953316688538,10.462660789489746
1.7710606674530747e+18,-0.029797600582242012,0.04728548228740692,-0.3884592056274414,10.192116737365723
1.7710606675031575e+18,-0.02766920067369938,-0.6212953329086304,-0.5506663918495178,10.103530883789062
1.7710606675530286e+18,0.0,0.42676645517349243,0.48602294921875,9.915586471557617
1.77106066760302e+18,-0.010641999542713165,0.011971008032560349,0.5835866332054138,9.787496566772461
1.7710606676530317e+18,-0.02128399908542633,0.02753331884741783,-0.618302583694458,9.543288230895996
1.7710606677030113e+18,-0.03299019858241081,0.2687491476535797,-0.04908113554120064,10.247182846069336
1.7710606677530537e+18,-0.022348200902342796,-0.2998737692832947,-0.363918662071228,9.83119010925293
1.7710606678030362e+18,-0.017027199268341064,0.1711854189634323,0.9882067441940308,9.565434455871582
1.77106066785304e+18,0.028733400627970695,0.3166331648826599,0.06643909960985184,9.982025146484375
1.7710606679030492e+18,-0.022348200902342796,-0.1149216815829277,-0.44651859998703003,10.094552993774414
1.7710606679530163e+18,0.05853100121021271,-0.1759738177061081,0.9127894043922424,10.003573417663574
1.771060668003081e+18,0.07662239670753479,0.04668693244457245,0.13587094843387604,9.847949981689453
1.7710606680530913e+18,0.008513599634170532,0.8385691046714783,0.4950011968612671,10.146626472473145
1.77106066810311e+18,0.025540800765156746,-0.03950432687997818,0.42018237709999084,9.941922187805176
1.7710606681530918e+18,0.031925998628139496,-0.0005985504249110818,-0.3693056106567383,10.793659210205078
1.7710606682030825e+18,0.038311198353767395,-0.2190694510936737,0.7386112213134766,10.087369918823242
1.7710606682530127e+18,-0.005320999771356583,0.3998316824436188,0.24241292476654053,10.320206642150879
1.771060668303081e+18,0.007449400145560503,-0.181959331035614,0.4213795065879822,10.366294860839844
1.7710606683530816e+18,-0.03299019858241081,0.3166331648826599,-0.40940847992897034,10.520720481872559
1.7710606684030756e+18,0.0,-0.09876082092523575,-0.18734627962112427,10.38963794708252
1.7710606684530842e+18,0.007449400145560503,0.2561795711517334,0.7954735159873962,10.187328338623047
1.7710606685030648e+18,-0.043632201850414276,0.35015198588371277,-0.3363853394985199,10.13286018371582
1.7710606685530806e+18,-0.04576060175895691,0.06224924325942993,-0.2627636194229126,10.85171890258789
1.7710606686030815e+18,-0.041503798216581345,0.14903905987739563,-0.16759411990642548,9.515754699707031
1.7710606686530898e+18,0.0,0.5829880833625793,0.10833762586116791,11.009736061096191
1.7710606687030815e+18,-0.017027199268341064,0.6177040338516235,0.5464765429496765,10.404003143310547
1.7710606687530765e+18,-0.04895320162177086,0.033518824726343155,0.284311443567276,9.674968719482422
1.7710606688030807e+18,0.0,-0.45010989904403687,-0.7164648175239563,9.491812705993652
1.7710606688531712e+18,0.03618279844522476,0.447715699672699,0.812831461429596,10.08437728881836
1.7710606689031654e+18,0.035118598490953445,0.37169981002807617,0.20290859043598175,10.229825019836426
1.771060668953173e+18,0.017027199268341064,0.27234044671058655,0.12389993667602539,10.24658489227295
1.7710606690031442e+18,0.0,0.23163901269435883,0.12090718746185303,10.058639526367188
1.771060669053084e+18,0.015962999314069748,0.2825157940387726,-0.4770446717739105,10.51174259185791
1.7710606691031596e+18,0.038311198353767395,0.20470423996448517,0.8439561128616333,10.254365921020508
1.7710606691532022e+18,-0.017027199268341064,0.406415730714798,-0.17178396880626678,9.940725326538086
1.7710606692031334e+18,-0.012770400382578373,-0.23283611238002777,-0.5015852451324463,10.038887977600098
1.7710606692531794e+18,0.0063852001912891865,0.40880993008613586,0.20350714027881622,10.109516143798828
1.771060669303162e+18,0.031925998628139496,-0.0035913025494664907,-0.02454056777060032,10.718242645263672
1.7710606693532465e+18,0.014898800291121006,0.21308395266532898,1.0055646896362305,10.606911659240723
1.7710606694031713e+18,-0.031925998628139496,0.31124621629714966,-0.22445639967918396,10.093954086303711
1.771060669453494e+18,0.005320999771356583,0.18974047899246216,-0.004189853090792894,10.747570991516113
1.7710606695030963e+18,-0.011706200428307056,-0.12030863016843796,0.5554547905921936,9.232041358947754
1.7710606695530834e+18,0.0,0.2669534981250763,0.2867056429386139,10.40579891204834
1.7710606696030098e+18,0.0,0.2687491476535797,0.7230489253997803,10.02452278137207
1.7710606696532198e+18,-0.015962999314069748,0.1909375786781311,0.10654197633266449,10.22264289855957
1.7710606697031724e+18,-0.014898800291121006,0.1280897855758667,-0.46148237586021423,10.448295593261719
1.7710606697531663e+18,-0.009577799588441849,0.3010708689689636,0.9139865040779114,10.11550235748291
1.7710606698030129e+18,0.008513599634170532,0.6817489266395569,0.6428431272506714,9.911396026611328
1.7710606698531604e+18,-0.011706200428307056,-0.37648820877075195,-0.13706804811954498,10.284892082214355
1.7710606699030676e+18,-0.03086180053651333,0.39863458275794983,-0.43335050344467163,10.168174743652344
1.7710606699531704e+18,0.050017401576042175,0.3621230125427246,0.3471592366695404,9.9586820602417
1.771060670003174e+18,0.029797600582242012,0.5931634902954102,0.47165772318840027,10.686518669128418
1.771060670053525e+18,0.010641999542713165,0.314238965511322,-0.12928688526153564,10.463858604431152
1.7710606701030938e+18,0.04043959826231003,-0.5614402890205383,-0.34416648745536804,10.098742485046387
1.7710606701530696e+18,0.03405439853668213,0.3172317147254944,0.6422445774078369,10.189722061157227
1.7710606702030784e+18,0.03618279844522476,0.5045779943466187,0.23822306096553802,10.201094627380371
1.771060670253184e+18,0.029797600582242012,-0.05027823522686958,-0.2148796021938324,10.384849548339844
1.7710606703030095e+18,-0.020219799131155014,0.5111620426177979,-0.36332011222839355,10.137049674987793
1.7710606703530102e+18,0.02447660081088543,0.2885012924671173,0.3836708068847656,10.394426345825195
1.7710606704031634e+18,-0.0063852001912891865,0.28131869435310364,0.9894038438796997,10.770316123962402
1.7710606704530836e+18,-0.007449400145560503,0.5829880833625793,-0.05267243832349777,10.220248222351074
1.7710606705031741e+18,-0.031925998628139496,0.004189853090792894,-0.5530605912208557,10.265738487243652
1.7710606705534236e+18,0.035118598490953445,0.2585737705230713,1.1402385234832764,9.91977596282959
1.771060670603074e+18,0.04256799817085266,0.33997663855552673,0.17657236754894257,10.581772804260254
1.7710606706531553e+18,-0.01809139922261238,0.04908113554120064,0.4519055485725403,10.071807861328125
1.7710606707031455e+18,-0.03405439853668213,0.08738835901021957,-0.18614917993545532,10.071208953857422
1.771060670753081e+18,0.005320999771356583,-0.8774749040603638,-0.5153518915176392,10.111910820007324
1.7710606708030172e+18,-0.007449400145560503,0.5009866952896118,0.5985504388809204,9.657610893249512
1.7710606708531635e+18,-0.04788900166749954,0.25438392162323,0.0867898091673851,9.928753852844238
1.7710606709031473e+18,0.007449400145560503,0.37648820877075195,0.40043023228645325,10.131064414978027
1.7710606709531548e+18,-0.005320999771356583,0.3357867896556854,-0.1346738487482071,10.202890396118164
1.771060671003061e+18,0.02766920067369938,0.40282443165779114,0.2388216108083725,10.137049674987793
1.7710606710531515e+18,0.010641999542713165,0.8924386501312256,0.6248866319656372,10.177152633666992
1.771060671103165e+18,0.025540800765156746,0.01975216343998909,0.38726210594177246,10.144830703735352
1.7710606711530294e+18,0.004256799817085266,0.18974047899246216,-0.7140706181526184,10.147823333740234
1.771060671203009e+18,-0.007449400145560503,0.2579752206802368,0.2908954918384552,9.59057331085205
1.7710606712531443e+18,0.06172360107302666,0.016759412363171577,0.38965630531311035,9.986215591430664
1.7710606713031698e+18,0.0,-0.46148237586021423,-0.4704606235027313,9.778517723083496
1.7710606713531546e+18,-0.026605000719428062,0.8182184100151062,-0.35314473509788513,10.219649314880371
1.7710606714030764e+18,0.023412400856614113,-0.33997663855552673,0.20709843933582306,10.43692398071289
1.7710606714531543e+18,-0.014898800291121006,0.3770867586135864,0.6518213748931885,10.179547309875488
1.7710606715031713e+18,0.017027199268341064,0.1999158412218094,0.3926490843296051,10.005369186401367
1.7710606715531546e+18,-0.038311198353767395,-0.30226796865463257,-0.730231523513794,10.175955772399902
1.771060671603028e+18,-0.038311198353767395,0.4836287498474121,-0.23403321206569672,10.245985984802246
1.771060671653166e+18,-0.004256799817085266,0.14724339544773102,-0.2693476974964142,9.985616683959961
1.7710606717031716e+18,-0.04043959826231003,0.5734112858772278,0.8589198589324951,10.26513957977295
1.771060671753228e+18,-0.03724699839949608,0.5093663930892944,-0.20949263870716095,10.057442665100098
1.7710606718030162e+18,-0.025540800765156746,-0.32202011346817017,-0.6003460884094238,10.203489303588867
1.7710606718531873e+18,-0.01383460033684969,0.4638765752315521,0.9415197968482971,10.004770278930664
1.7710606719031726e+18,0.02447660081088543,0.3124433159828186,0.416591078042984,10.04188060760498
1.7710606719530847e+18,0.022348200902342796,0.021547814831137657,0.31124621629714966,10.217255592346191
1.771060672003055e+18,-0.02128399908542633,0.4405331015586853,-0.032920271158218384,9.983222007751465
1.7710606720531013e+18,0.008513599634170532,0.06703764945268631,-0.39205053448677063,9.962871551513672
1.7710606721030305e+18,0.07023719698190689,0.04728548228740692,1.095347285270691,9.990405082702637
1.7710606721531402e+18,0.0,0.5063736438751221,-0.2663549482822418,10.046070098876953
1.7710606722030042e+18,0.025540800765156746,0.33758243918418884,0.193331778049469,10.098742485046387
1.7710606722531453e+18,0.012770400382578373,-0.01735796220600605,-0.14484919607639313,9.874884605407715
1.7710606723030692e+18,0.05853100121021271,0.4626794755458832,0.2759317457675934,10.103530883789062
1.771060672353115e+18,0.0,0.39205053448677063,0.7206547260284424,10.169371604919434
1.771060672403025e+18,-0.009577799588441849,0.8301894068717957,0.17238251864910126,10.160991668701172
1.7710606724530947e+18,-0.004256799817085266,0.08499415963888168,-0.3405751883983612,10.306439399719238
1.771060672503021e+18,-0.029797600582242012,0.7170634269714355,-0.035913024097681046,10.098143577575684
1.7710606725530225e+18,0.03086180053651333,0.17238251864910126,0.5949591398239136,10.269927978515625
1.7710606726030945e+18,-0.015962999314069748,-0.27234044671058655,-0.3890577554702759,10.532691955566406
1.7710606726531497e+18,-0.08087919652462006,0.6165069341659546,-0.3034650683403015,10.35372543334961
1.7710606727030013e+18,0.007449400145560503,0.06224924325942993,0.002992752008140087,10.342950820922852
1.771060672753082e+18,0.012770400382578373,0.1430535465478897,0.6272808313369751,9.966463088989258
1.7710606728031688e+18,0.014898800291121006,0.3190273642539978,0.2555810213088989,10.089165687561035
1.7710606728531679e+18,-0.01809139922261238,0.07122749835252762,0.2238578498363495,10.219649314880371
1.7710606729032425e+18,-0.038311198353767395,-0.1646013706922531,-0.15562310814857483,9.837774276733398
1.771060672953175e+18,-0.0063852001912891865,0.08499415963888168,-0.4207809269428253,10.469244956970215
1.771060673003005e+18,0.0,0.06224924325942993,0.7416039705276489,10.104727745056152
1.7710606730531592e+18,-0.008513599634170532,0.6230909824371338,0.2561795711517334,10.503362655639648
1.7710606731030141e+18,0.02766920067369938,-0.5865793824195862,0.264559268951416,10.016142845153809
1.7710606731530578e+18,0.010641999542713165,0.4734533727169037,-0.028131868690252304,10.340557098388672
1.7710606732030838e+18,0.03724699839949608,0.18315643072128296,0.7224503755569458,9.77253246307373
1.771060673253011e+18,0.009577799588441849,-0.13407529890537262,-0.8565256595611572,10.147823333740234
1.7710606733030935e+18,-0.035118598490953445,0.3447650372982025,-0.30526071786880493,9.838972091674805
1.771060673353128e+18,0.023412400856614113,0.27054479718208313,-0.1478419452905655,10.36449909210205
1.7710606734031747e+18,0.035118598490953445,0.19931729137897491,0.7571662664413452,10.500968933105469
1.7710606734530307e+18,0.008513599634170532,0.3902548849582672,0.1711854189634323,9.812036514282227
1.771060673503016e+18,-0.01809139922261238,-0.21607670187950134,-0.800261914730072,9.857526779174805
1.7710606735531592e+18,0.008513599634170532,0.28371289372444153,0.751779317855835,10.386046409606934
1.7710606736030164e+18,0.014898800291121006,0.06224924325942993,0.28072014451026917,10.31362247467041
1.7710606736531556e+18,-0.03086180053651333,0.5153518915176392,0.3974374830722809,10.319607734680176
1.7710606737030692e+18,-0.04788900166749954,0.4076128304004669,-0.25737667083740234,10.093954086303711
1.7710606737530097e+18,-0.01809139922261238,-0.8421604633331299,-0.5770025849342346,9.838972091674805
1.7710606738030968e+18,0.015962999314069748,0.21966800093650818,0.7398083209991455,10.257957458496094
1.7710606738530831e+18,-0.012770400382578373,0.28550854325294495,0.2908954918384552,10.053851127624512
1.7710606739030546e+18,0.035118598490953445,0.5704185366630554,0.6177040338516235,10.74996566772461
1.7710606739531295e+18,-0.05214580148458481,0.2579752206802368,-0.30047231912612915,9.715071678161621
1.7710606740031662e+18,0.014898800291121006,0.3471592366695404,0.13168108463287354,10.24119758605957
1.7710606740531277e+18,0.03405439853668213,-0.12210428714752197,1.0498573780059814,9.95090103149414
1.771060674103113e+18,0.007449400145560503,0.47405192255973816,0.13287819921970367,10.511143684387207
1.7710606741531016e+18,0.03405439853668213,0.011971008032560349,0.6147112846374512,9.777320861816406
1.7710606742030884e+18,-0.015962999314069748,0.5351040959358215,-0.2711433470249176,10.311826705932617
1.7710606742531162e+18,0.06278780102729797,0.03711012750864029,0.43933600187301636,10.487800598144531
1.7710606743030144e+18,0.03724699839949608,0.304063618183136,0.8678981065750122,10.628459930419922
1.7710606743530929e+18,-0.03618279844522476,0.40222588181495667,0.04848258197307587,9.976638793945312
1.77106067440318e+18,0.05108160153031349,-0.02753331884741783,-0.17178396880626678,10.418368339538574
1.7710606744531722e+18,-0.0063852001912891865,0.42377370595932007,-0.5728127360343933,10.244190216064453
1.7710606745030769e+18,0.035118598490953445,0.8313865065574646,0.2753331959247589,10.166976928710938
1.771060674553074e+18,0.02766920067369938,-0.7026981711387634,0.4381389021873474,9.913790702819824
1.7710606746030733e+18,-0.06385199725627899,0.6350619792938232,-0.14425064623355865,10.433930397033691
1.771060674653101e+18,0.004256799817085266,0.002394201699644327,-0.1604115068912506,10.28130054473877
1.7710606747031452e+18,0.03086180053651333,0.23582886159420013,1.2425906658172607,10.102334022521973
1.7710606747530772e+18,-0.035118598490953445,0.345363587141037,-0.3010708689689636,10.195109367370605
1.7710606748030577e+18,-0.017027199268341064,-0.2849099934101105,-0.2238578498363495,10.080187797546387
1.7710606748531773e+18,-0.04256799817085266,0.5566518902778625,0.002394201699644327,10.077195167541504
1.7710606749031076e+18,0.023412400856614113,-0.076015904545784,0.4471171498298645,10.218452453613281
1.7710606749529992e+18,0.0,0.1825578808784485,0.7266402244567871,10.126874923706055
1.7710606750030277e+18,-0.08513599634170532,0.4447229504585266,0.3208230137825012,9.941324234008789
1.7710606750531139e+18,-0.011706200428307056,0.019153613597154617,-0.6326677799224854,10.254963874816895
1.7710606751030764e+18,0.004256799817085266,-0.36750996112823486,-0.27054479718208313,10.19032096862793
1.7710606751530872e+18,0.019155599176883698,0.596754789352417,0.3100491166114807,10.323199272155762
1.7710606752030664e+18,0.046824801713228226,-0.013766659423708916,0.5476736426353455,10.125079154968262
1.771060675253083e+18,0.004256799817085266,0.6272808313369751,-0.24001871049404144,10.254365921020508
1.7710606753030776e+18,0.014898800291121006,0.06823474913835526,-0.1107318252325058,10.13166332244873
1.7710606753530757e+18,0.046824801713228226,0.4231751561164856,0.9714473485946655,10.183137893676758
1.7710606754030784e+18,0.043632201850414276,0.16819266974925995,0.6841431260108948,9.983222007751465
1.771060675453023e+18,0.0,-0.629675030708313,-0.7475894689559937,10.524312019348145
1.771060675503003e+18,0.029797600582242012,0.7481880187988281,0.6105214357376099,10.500968933105469
1.7710606755530578e+18,0.025540800765156746,0.28072014451026917,0.1885433793067932,10.563218116760254
1.7710606756030774e+18,0.0,0.36571431159973145,0.4225766062736511,10.235810279846191
1.7710606756530243e+18,-0.06065940111875534,0.8062474131584167,-0.4728548228740692,10.272920608520508
1.7710606757031322e+18,-0.005320999771356583,-0.4758475720882416,-0.28969839215278625,10.11909294128418
1.771060675753076e+18,0.012770400382578373,0.5620388388633728,1.0187327861785889,10.11550235748291
1.771060675803076e+18,0.0,0.18974047899246216,0.2585737705230713,10.125677108764648
1.7710606758530092e+18,0.0,0.24001871049404144,0.5099649429321289,10.111910820007324
1.7710606759030725e+18,-0.043632201850414276,0.41120412945747375,-0.38486790657043457,10.538677215576172
1.771060675953077e+18,-0.04256799817085266,-0.33518823981285095,-0.4405331015586853,9.933542251586914
1.771060676003001e+18,0.019155599176883698,0.33758243918418884,1.1480196714401245,9.964068412780762
1.7710606760531023e+18,-0.009577799588441849,0.477643221616745,0.07900865375995636,10.064624786376953
1.7710606761031373e+18,0.02128399908542633,0.6584054827690125,0.608127236366272,10.413579940795898
1.7710606761530808e+18,-0.031925998628139496,0.076015904545784,-0.30526071786880493,10.365097999572754
1.7710606762030339e+18,0.04469640180468559,-0.004788403399288654,0.43993455171585083,10.473435401916504
1.7710606762531855e+18,-0.009577799588441849,-0.19692309200763702,0.228047713637352,10.11909294128418
1.7710606763031142e+18,-0.04895320162177086,0.3998316824436188,-0.25019407272338867,9.944914817810059
1.771060676353075e+18,0.05108160153031349,-0.34416648745536804,0.008978256024420261,10.269927978515625
1.7710606764030812e+18,0.029797600582242012,0.711077868938446,0.43993455171585083,10.022128105163574
1.7710606764530017e+18,0.05214580148458481,0.3292027413845062,0.22625206410884857,10.197503089904785
1.771060676503052e+18,0.043632201850414276,-0.4878185987472534,-0.25677812099456787,9.93474006652832
1.771060676553076e+18,-0.022348200902342796,0.6236895322799683,-0.04249707981944084,9.899425506591797
1.7710606766030787e+18,0.005320999771356583,-0.010773907415568829,-0.18076223134994507,10.32978343963623
1.7710606766531075e+18,0.02447660081088543,-0.008978256024420261,1.1653776168823242,10.006566047668457
1.7710606767030113e+18,-0.04788900166749954,0.3908534348011017,-0.13407529890537262,10.107721328735352
1.7710606767530732e+18,-0.014898800291121006,-0.6123170852661133,-0.5249286890029907,10.323199272155762
1.7710606768038753e+18,-0.038311198353767395,0.6967126727104187,0.11432313174009323,10.281899452209473
1.7710606768530721e+18,0.03299019858241081,0.16879121959209442,0.6153098344802856,10.098742485046387
1.771060676903079e+18,0.022348200902342796,-0.12449848651885986,0.8337807059288025,10.090961456298828
1.7710606769530816e+18,-0.09258539974689484,0.264559268951416,-0.36152446269989014,10.0765962600708
1.7710606770030344e+18,0.010641999542713165,-0.22026655077934265,0.055665187537670135,10.15021800994873
1.7710606770533553e+18,0.014898800291121006,0.6721721291542053,-0.002394201699644327,10.254365921020508
1.7710606771030812e+18,-0.026605000719428062,0.20889408886432648,0.24480712413787842,10.307636260986328
1.7710606771534367e+18,0.03299019858241081,0.2124854028224945,-0.07781155407428741,10.508749961853027
1.7710606772030758e+18,0.0,0.3627215623855591,0.11252747476100922,9.995193481445312
1.771060677253173e+18,0.0,-0.16579847037792206,-0.545877993106842,10.394426345825195
1.77106067730308e+18,0.05214580148458481,0.272938996553421,1.0097545385360718,9.835978507995605
1.771060677353177e+18,0.015962999314069748,0.7398083209991455,0.10773907601833344,10.070611000061035
1.7710606774030065e+18,0.023412400856614113,-0.8176198601722717,-0.28131869435310364,9.41100788116455
1.7710606774530762e+18,0.0,0.23044191300868988,0.6542155742645264,9.43375301361084
1.771060677503498e+18,-0.005320999771356583,0.4537012279033661,-0.010773907415568829,10.396821022033691
1.7710606775530767e+18,0.04043959826231003,0.33279404044151306,1.025316834449768,10.271124839782715
1.771060677603166e+18,-0.04576060175895691,0.26755204796791077,-0.6326677799224854,10.110713958740234
1.7710606776530399e+18,-0.029797600582242012,-0.3214215636253357,-0.9618704915046692,10.302847862243652
1.7710606777030776e+18,0.04469640180468559,-0.012569558806717396,0.9917980432510376,9.858723640441895
1.771060677753095e+18,-0.028733400627970695,0.23044191300868988,0.090979665517807,10.021529197692871
1.771060677803176e+18,0.0,0.30885201692581177,0.7062894701957703,10.326789855957031
1.771060677853079e+18,-0.04469640180468559,0.1280897855758667,-0.7212532758712769,10.472237586975098
1.7710606779031322e+18,0.0,0.3010708689689636,0.2585737705230713,9.912593841552734
1.7710606779530826e+18,-0.022348200902342796,0.24181437492370605,0.7631517648696899,10.350133895874023
1.7710606780030607e+18,-0.005320999771356583,0.10953472554683685,0.3214215636253357,9.875483512878418
1.7710606780531005e+18,-0.015962999314069748,-0.16400282084941864,-0.36092591285705566,10.107721328735352
1.771060678103067e+18,-0.020219799131155014,-0.17537526786327362,-0.7954735159873962,10.280701637268066
1.7710606781531e+18,-0.017027199268341064,0.41539397835731506,0.15143325924873352,10.56261920928955
1.771060678203082e+18,0.025540800765156746,-0.5722141861915588,0.6356605291366577,10.235212326049805
1.7710606782530793e+18,0.009577799588441849,0.03770867735147476,-0.20530278980731964,9.654618263244629
1.7710606783030794e+18,0.020219799131155014,0.6362590789794922,-0.1759738177061081,10.975619316101074
1.7710606783531633e+18,0.050017401576042175,-0.10235211998224258,0.6440402269363403,10.031704902648926
1.7710606784031636e+18,0.03086180053651333,0.6075286865234375,-0.2412158101797104,10.247781753540039
1.771060678453168e+18,0.04469640180468559,-0.4118026793003082,-0.02274491637945175,9.907206535339355
1.7710606785031805e+18,0.0,0.11192892491817474,0.19572599232196808,9.820416450500488
1.771060678553161e+18,0.035118598490953445,0.517746090888977,-0.2693476974964142,9.654618263244629
1.7710606786031112e+18,0.029797600582242012,0.3944447338581085,0.35015198588371277,10.596736907958984
1.7710606786531558e+18,-0.005320999771356583,0.07362169772386551,0.1149216815829277,10.271124839782715
1.7710606787030723e+18,0.0,-0.3519476354122162,-0.4100070297718048,10.221445083618164
1.7710606787533084e+18,-0.038311198353767395,0.2017114907503128,-0.31783026456832886,10.035296440124512
1.771060678803035e+18,-0.02128399908542633,0.09816227108240128,0.03711012750864029,10.17416000366211
1.7710606788530263e+18,0.008513599634170532,0.055665187537670135,0.7463923692703247,10.369287490844727
1.771060678903156e+18,-0.06810879707336426,0.4836287498474121,-0.4411316514015198,10.029311180114746
1.771060678953103e+18,-0.04788900166749954,-0.023343466222286224,-0.2609679698944092,9.609726905822754
1.7710606790030067e+18,0.03086180053651333,0.018555063754320145,1.0313023328781128,10.160991668701172
1.7710606790531638e+18,-0.03086180053651333,0.4644751250743866,-0.0071826050989329815,9.707290649414062
1.77106067910321e+18,-0.015962999314069748,0.5099649429321289,0.772130012512207,10.210671424865723
1.7710606791531766e+18,-0.056402601301670074,0.09816227108240128,-0.20949263870716095,10.245387077331543
