timestamp,omega_z,accel_x,accel_y,accel_z
1.7710629499971853e+18,0.0,0.14425064623355865,0.12689268589019775,10.122684478759766
1.7710629500470776e+18,0.0,0.12210428714752197,0.10534487664699554,10.104727745056152
1.7710629500969733e+18,0.0,0.14604629576206207,0.09636661410331726,10.11669921875
1.7710629501471032e+18,0.0,0.15322890877723694,0.10115502029657364,10.116100311279297
1.771062950197144e+18,0.0,0.1173158809542656,0.1628057062625885,10.165780067443848
1.7710629502470413e+18,0.0,0.152031809091568,0.11851298063993454,10.108918190002441
1.7710629502970883e+18,0.0,0.1711854189634323,0.12389993667602539,10.108319282531738
1.7710629503470792e+18,0.0,0.12928688526153564,0.09516951441764832,10.145429611206055
1.771062950396973e+18,0.0,0.16340425610542297,0.09876082092523575,10.159195899963379
1.771062950447136e+18,0.0,0.12689268589019775,0.132279634475708,10.124480247497559
1.7710629504971397e+18,0.0,0.1215057373046875,0.13527239859104156,10.148422241210938
1.7710629505471803e+18,0.0,0.14664484560489655,0.11372458189725876,10.13166332244873
1.7710629505970332e+18,0.0,0.14484919607639313,0.104147769510746,10.16757583618164
1.7710629506471741e+18,0.0,0.12868833541870117,0.10055647045373917,10.108918190002441
1.771062950697109e+18,0.0,0.13168108463287354,0.10115502029657364,10.104129791259766
1.7710629507470016e+18,0.0,0.11013327538967133,0.10773907601833344,10.138246536254883
1.7710629507972692e+18,0.0,0.12090718746185303,0.15741875767707825,10.15560531616211
1.7710629508470902e+18,0.0,0.09576806426048279,0.1538274586200714,10.177751541137695
1.7710629508969692e+18,0.0,0.14604629576206207,0.11971008032560349,10.159794807434082
1.7710629509470044e+18,0.0,0.1215057373046875,0.09696516394615173,10.132261276245117
1.7710629509970793e+18,0.0,0.13766659796237946,0.12330138683319092,10.15261173248291
1.7710629510477614e+18,0.0,0.12749123573303223,0.12389993667602539,10.122684478759766
1.77106295109707e+18,0.0,0.11252747476100922,0.11851298063993454,10.18912410736084
1.771062951147033e+18,0.0,0.1711854189634323,0.0999579206109047,10.070611000061035
1.7710629511969638e+18,0.0,0.1777694672346115,0.09038111567497253,10.13166332244873
1.7710629512469878e+18,0.0,0.13706804811954498,0.10833762586116791,10.15560531616211
1.7710629512970842e+18,0.0,0.13946224749088287,0.09516951441764832,10.117298126220703
1.7710629513469834e+18,0.0,0.15322890877723694,0.10534487664699554,10.141838073730469
1.7710629513971863e+18,0.0,0.12868833541870117,0.13946224749088287,10.159794807434082
1.7710629514469706e+18,0.0,0.12928688526153564,0.12389993667602539,10.120888710021973
1.77106295149698e+18,0.0,0.1735796183347702,0.10115502029657364,10.103530883789062
1.7710629515470147e+18,0.0,0.1586158573627472,0.11372458189725876,10.142436981201172
1.7710629515970516e+18,0.0,0.1346738487482071,0.11432313174009323,10.15141487121582
1.7710629516469652e+18,0.0,0.12868833541870117,0.12988543510437012,10.158597946166992
1.7710629516969567e+18,0.0,0.13766659796237946,0.10295066982507706,10.11909294128418
1.7710629517470991e+18,0.0,0.14844051003456116,0.10354921966791153,10.11789608001709
1.7710629517970877e+18,0.0,0.15322890877723694,0.09516951441764832,10.141838073730469
1.7710629518469752e+18,0.0,0.12928688526153564,0.10714052617549896,10.133458137512207
1.7710629518969777e+18,0.0,0.15741875767707825,0.11671733111143112,10.129268646240234
1.7710629519471452e+18,0.0,0.14245499670505524,0.104147769510746,10.11789608001709
1.771062951997047e+18,0.0,0.1586158573627472,0.11252747476100922,10.149619102478027
1.7710629520470838e+18,0.0,0.16759411990642548,0.10773907601833344,10.09934139251709
1.7710629520969618e+18,0.0,0.15143325924873352,0.12449848651885986,10.141838073730469
1.7710629521471084e+18,0.0,0.1628057062625885,0.13287819921970367,10.120290756225586
1.7710629521970985e+18,0.0,0.15263035893440247,0.09696516394615173,10.114903450012207
1.7710629522470986e+18,0.0,0.17657236754894257,0.10594342648983002,10.13286018371582
1.7710629522970401e+18,0.0,0.1430535465478897,0.1149216815829277,10.13286018371582
1.7710629523470339e+18,0.0,0.12629413604736328,0.10714052617549896,10.149619102478027
1.7710629523970196e+18,0.0,0.1280897855758667,0.11372458189725876,10.128669738769531
1.771062952447049e+18,0.0,0.11552023142576218,0.14425064623355865,10.162787437438965
1.7710629524969684e+18,0.0,0.10654197633266449,0.12629413604736328,10.121487617492676
1.771062952547058e+18,0.0,0.14724339544773102,0.10594342648983002,10.145429611206055
1.7710629525970332e+18,0.0,0.11851298063993454,0.1107318252325058,10.153210639953613
1.7710629526470996e+18,0.0,0.11133037507534027,0.12629413604736328,10.160991668701172
1.7710629526969792e+18,0.0,0.152031809091568,0.09277531504631042,10.138246536254883
1.7710629527469952e+18,0.0,0.16340425610542297,0.10295066982507706,10.136451721191406
1.7710629527969897e+18,0.0,0.1562216579914093,0.1107318252325058,10.123283386230469
1.7710629528471094e+18,0.0,0.17238251864910126,0.10115502029657364,10.124480247497559
1.7710629528970243e+18,0.0,0.1604115068912506,0.08259996026754379,10.143633842468262
1.7710629529471066e+18,0.0,0.1412578970193863,0.10534487664699554,10.134655952453613
1.7710629529970583e+18,0.0,0.1562216579914093,0.10893617570400238,10.119691848754883
1.7710629530471334e+18,0.0,0.12629413604736328,0.1107318252325058,10.158597946166992
1.7710629530970028e+18,0.0,0.11851298063993454,0.10354921966791153,10.117298126220703
1.771062953147069e+18,0.0,0.14724339544773102,0.10055647045373917,10.157999038696289
1.771062953196976e+18,0.0,0.1454477459192276,0.10175357013940811,10.15560531616211
1.7710629532470313e+18,0.0,0.12509703636169434,0.11552023142576218,10.154407501220703
1.7710629532970332e+18,0.0,0.13766659796237946,0.11671733111143112,10.14902114868164
1.7710629533469706e+18,0.0,0.11791443079710007,0.11671733111143112,10.13405704498291
1.7710629533970954e+18,0.0,0.14484919607639313,0.10833762586116791,10.124480247497559
1.7710629534471086e+18,0.0,0.12928688526153564,0.10893617570400238,10.154407501220703
1.771062953497113e+18,0.0,0.11971008032560349,0.11611878126859665,10.15141487121582
1.7710629535471327e+18,0.0,0.14724339544773102,0.11791443079710007,10.15141487121582
1.7710629535969856e+18,0.0,0.15502455830574036,0.09277531504631042,10.144232749938965
1.771062953646973e+18,0.0,0.2059013396501541,0.043095629662275314,10.13286018371582
1.7710629536970655e+18,0.0,0.15921440720558167,0.09816227108240128,10.168174743652344
1.7710629537471421e+18,0.0,0.12210428714752197,0.12330138683319092,10.122684478759766
1.7710629537970348e+18,0.0,0.15083470940589905,0.11791443079710007,10.143034934997559
1.7710629538470305e+18,0.0,0.12509703636169434,0.10055647045373917,10.120290756225586
1.7710629538971e+18,0.0,0.1628057062625885,0.104147769510746,10.142436981201172
1.7710629539470927e+18,0.0,0.11671733111143112,0.10953472554683685,10.122086524963379
1.771062953997141e+18,0.0,0.11133037507534027,0.10654197633266449,10.156203269958496
1.7710629540471045e+18,0.0,0.09696516394615173,0.1454477459192276,10.134655952453613
1.771062954097087e+18,0.0,0.12509703636169434,0.132279634475708,10.134655952453613
1.771062954147109e+18,0.0,0.14903905987739563,0.11312603205442429,10.159794807434082
1.7710629541971415e+18,0.0,0.11851298063993454,0.11252747476100922,10.15560531616211
1.771062954246952e+18,0.0,0.11911153048276901,0.14185644686222076,10.120888710021973
1.7710629542971546e+18,0.0,0.13766659796237946,0.13587094843387604,10.108918190002441
1.7710629543469652e+18,0.0,0.15263035893440247,0.11192892491817474,10.130465507507324
1.771062954397023e+18,0.0,0.16400282084941864,0.10773907601833344,10.128669738769531
1.7710629544471112e+18,0.0,0.15741875767707825,0.1215057373046875,10.13525390625
1.771062954497111e+18,0.0,0.1693897694349289,0.09516951441764832,10.110115051269531
1.7710629545471058e+18,0.0,0.17058686912059784,0.104147769510746,10.140042304992676
1.7710629545969523e+18,0.0,0.17896656692028046,0.08140285313129425,10.116100311279297
1.7710629546470915e+18,0.0,0.18375498056411743,0.07362169772386551,10.110713958740234
1.7710629546973673e+18,0.0,0.14484919607639313,0.09157821536064148,10.159195899963379
1.7710629547471066e+18,0.0,0.13407529890537262,0.10833762586116791,10.128071784973145
1.7710629547970783e+18,0.0,0.10654197633266449,0.11791443079710007,10.105326652526855
1.771062954846969e+18,0.0,0.13826514780521393,0.05686229094862938,10.169371604919434
1.7710629548969782e+18,0.0,0.12270283699035645,0.10534487664699554,10.146626472473145
1.7710629549471043e+18,0.0,0.09816227108240128,0.09696516394615173,10.122684478759766
1.7710629549969807e+18,0.0,0.15562310814857483,0.1149216815829277,10.156203269958496
1.771062955047074e+18,0.0,0.12689268589019775,0.14484919607639313,10.144830703735352
1.7710629550969807e+18,0.0,0.13587094843387604,0.12449848651885986,10.17296314239502
1.771062955147651e+18,0.0,0.16220715641975403,0.10594342648983002,10.165182113647461
1.7710629551970463e+18,0.0,0.18794482946395874,0.10594342648983002,10.159794807434082
1.7710629552469796e+18,0.0,0.09935937076807022,0.12868833541870117,10.138845443725586
1.7710629552970813e+18,0.0,0.15921440720558167,0.1346738487482071,10.135852813720703
1.7710629553470364e+18,0.0,0.16400282084941864,0.10354921966791153,10.134655952453613
1.7710629553970322e+18,0.0,0.1604115068912506,0.10474631935358047,10.137648582458496
1.7710629554470843e+18,0.0,0.11552023142576218,0.13826514780521393,10.169371604919434
1.7710629554970353e+18,0.0,0.14724339544773102,0.10115502029657364,10.122684478759766
1.7710629555470828e+18,0.0,0.11851298063993454,0.1107318252325058,10.142436981201172
1.7710629555969564e+18,0.0,0.10115502029657364,0.11671733111143112,10.144232749938965
1.7710629556471089e+18,0.0,0.1538274586200714,0.11611878126859665,10.129867553710938
1.7710629556969956e+18,0.0,0.11671733111143112,0.11851298063993454,10.15021800994873
1.7710629557470252e+18,0.0,0.12928688526153564,0.11372458189725876,10.152013778686523
1.7710629557970964e+18,0.0,0.09516951441764832,0.1173158809542656,10.159794807434082
1.7710629558469568e+18,0.0,0.11432313174009323,0.12090718746185303,10.147823333740234
1.771062955897115e+18,0.0,0.13407529890537262,0.10235211998224258,10.099939346313477
1.7710629559471027e+18,0.0,0.14484919607639313,0.10654197633266449,10.130465507507324
1.7710629559971046e+18,0.0,0.1454477459192276,0.10714052617549896,10.147823333740234
1.771062956047067e+18,0.0,0.14006079733371735,0.08798690885305405,10.119691848754883
1.771062956097075e+18,0.0,0.1430535465478897,0.0999579206109047,10.143633842468262
1.7710629561471096e+18,0.0,0.1280897855758667,0.1107318252325058,10.092757225036621
1.7710629561970609e+18,0.0,0.1346738487482071,0.12210428714752197,10.15560531616211
1.7710629562469727e+18,0.0,0.10354921966791153,0.15322890877723694,10.111311912536621
1.7710629562972004e+18,0.0,0.14365209639072418,0.13587094843387604,10.11550235748291
1.7710629563471076e+18,0.0,0.1412578970193863,0.11671733111143112,10.107122421264648
1.771062956397078e+18,0.0,0.1364694982767105,0.09576806426048279,10.133458137512207
1.771062956447089e+18,0.0,0.0975637212395668,0.1478419452905655,10.107122421264648
1.7710629564970035e+18,0.0,0.08499415963888168,0.10893617570400238,10.135852813720703
1.7710629565470792e+18,0.0,0.13108253479003906,0.0867898091673851,10.16637897491455
1.7710629565970924e+18,0.0,0.13527239859104156,0.10235211998224258,10.144830703735352
1.7710629566471004e+18,0.0,0.1346738487482071,0.10235211998224258,10.143633842468262
1.7710629566971041e+18,0.0,0.12330138683319092,0.11013327538967133,10.158597946166992
1.7710629567471027e+18,0.0,0.132279634475708,0.1173158809542656,10.13525390625
1.7710629567971039e+18,0.0,0.16340425610542297,0.10953472554683685,10.16637897491455
1.771062956847068e+18,0.0,0.16759411990642548,0.06344634294509888,10.114304542541504
1.7710629568971023e+18,0.0,0.1801636815071106,0.07182604819536209,10.139444351196289
1.771062956947136e+18,0.0,0.13527239859104156,0.09576806426048279,10.150816917419434
1.7710629569971005e+18,0.0,0.14425064623355865,0.10235211998224258,10.102932929992676
1.7710629570471365e+18,0.0,0.1604115068912506,0.08499415963888168,10.149619102478027
1.771062957097099e+18,0.0,0.10594342648983002,0.09816227108240128,10.143034934997559
1.7710629571470456e+18,0.0,0.14365209639072418,0.10295066982507706,10.129867553710938
1.7710629571971082e+18,0.0,0.11372458189725876,0.1388636976480484,10.13286018371582
1.7710629572471068e+18,0.0,0.11133037507534027,0.09277531504631042,10.155006408691406
1.7710629572969864e+18,0.01383460033684969,0.24779987335205078,0.06344634294509888,10.15021800994873
1.7710629573469821e+18,0.0,0.12389993667602539,0.11252747476100922,10.168174743652344
1.7710629573970683e+18,-0.005320999771356583,0.25498247146606445,0.14844051003456116,10.081384658813477
1.771062957447067e+18,-0.03299019858241081,0.09636661410331726,0.0999579206109047,10.155006408691406
1.7710629574969836e+18,-0.023412400856614113,0.2687491476535797,0.06883329898118973,10.139444351196289
1.771062957547148e+18,0.0,-0.015562310814857483,0.1215057373046875,10.144830703735352
1.771062957596983e+18,0.011706200428307056,0.04728548228740692,0.10654197633266449,10.097545623779297
1.7710629576470085e+18,0.008513599634170532,0.23822306096553802,0.09157821536064148,10.103530883789062
1.7710629576970327e+18,-0.0063852001912891865,0.0933738648891449,0.18734627962112427,10.193912506103516
1.7710629577470833e+18,-0.004256799817085266,0.2825157940387726,0.013168109580874443,10.140042304992676
1.7710629577969702e+18,0.004256799817085266,0.14724339544773102,0.06703764945268631,10.11550235748291
1.771062957846982e+18,0.0,0.24001871049404144,0.055665187537670135,10.118494987487793
1.7710629578971144e+18,-0.0063852001912891865,0.2861070930957794,0.12868833541870117,10.01195240020752
1.7710629579469745e+18,0.0063852001912891865,0.08259996026754379,0.0005985504249110818,10.125079154968262
1.7710629579974295e+18,0.0,0.17238251864910126,0.032920271158218384,10.140042304992676
1.7710629580470298e+18,0.0063852001912891865,0.03770867735147476,0.2472013235092163,10.113706588745117
1.771062958096984e+18,0.02447660081088543,0.2412158101797104,0.0999579206109047,10.189722061157227
1.7710629581470252e+18,0.0063852001912891865,0.005386953707784414,0.053270988166332245,10.074800491333008
1.7710629581970365e+18,0.005320999771356583,0.07003039866685867,0.0065840547904372215,10.07779312133789
1.771062958247017e+18,0.0063852001912891865,0.23762451112270355,0.1215057373046875,10.131064414978027
1.7710629582970808e+18,-0.015962999314069748,0.24660277366638184,0.05506663769483566,10.141240119934082
1.7710629583470487e+18,0.0,-0.04668693244457245,0.03172317147254944,10.15141487121582
1.771062958397032e+18,-0.005320999771356583,0.2687491476535797,0.04249707981944084,10.090961456298828
1.771062958447141e+18,-0.009577799588441849,0.07242459803819656,0.058059390634298325,10.179547309875488
1.771062958497115e+18,0.010641999542713165,0.25438392162323,0.1801636815071106,10.043676376342773
1.771062958547044e+18,0.0,0.06224924325942993,0.16579847037792206,10.114903450012207
1.7710629585970324e+18,0.0,0.166995570063591,0.03172317147254944,10.213664054870605
1.7710629586469847e+18,0.0,0.16819266974925995,0.14065934717655182,10.111910820007324
1.7710629586969828e+18,-0.008513599634170532,0.17537526786327362,0.07960720360279083,10.124480247497559
1.771062958746974e+18,0.010641999542713165,0.05386953800916672,0.11791443079710007,10.008959770202637
1.7710629587971676e+18,-0.005320999771356583,0.15981295704841614,0.19692309200763702,10.08318042755127
1.7710629588470285e+18,0.0063852001912891865,0.06464344263076782,0.19632454216480255,10.126276016235352
1.771062958896981e+18,-0.01383460033684969,-0.050876785069704056,0.07362169772386551,10.181342124938965
1.771062958947105e+18,-0.01809139922261238,0.25318682193756104,0.20470423996448517,10.160393714904785
1.771062958996965e+18,-0.012770400382578373,0.16759411990642548,0.15143325924873352,10.146626472473145
1.7710629590469563e+18,-0.0063852001912891865,0.4602852761745453,0.19273322820663452,10.150816917419434
1.7710629590970204e+18,0.010641999542713165,0.1280897855758667,0.05446808785200119,10.163386344909668
1.7710629591469537e+18,-0.008513599634170532,0.44651859998703003,0.20949263870716095,10.355521202087402
1.7710629591969495e+18,-0.008513599634170532,0.005386953707784414,0.23942016065120697,9.996989250183105
1.7710629592469535e+18,-0.010641999542713165,0.4734533727169037,0.13168108463287354,10.170568466186523
1.7710629592970307e+18,-0.02128399908542633,0.2238578498363495,0.10773907601833344,9.824606895446777
1.771062959347025e+18,0.008513599634170532,0.3447650372982025,-0.10235211998224258,10.150816917419434
1.771062959397051e+18,0.005320999771356583,0.656609833240509,0.3387795388698578,10.262146949768066
1.771062959447047e+18,-0.05108160153031349,0.32860419154167175,0.05506663769483566,10.004770278930664
1.7710629594970307e+18,0.0,0.535702645778656,-0.447715699672699,11.137228012084961
1.7710629595470292e+18,-0.009577799588441849,-0.20350714027881622,1.0534486770629883,10.037690162658691
1.7710629595970289e+18,-0.026605000719428062,0.5416881442070007,-0.21667525172233582,10.423755645751953
1.7710629596470287e+18,0.03299019858241081,0.5039794445037842,0.7487865686416626,10.408791542053223
1.77106295969701e+18,-0.038311198353767395,0.3597288131713867,-0.33039984107017517,10.075399398803711
1.7710629597470881e+18,0.008513599634170532,-0.060453593730926514,0.4279635548591614,10.221445083618164
1.771062959797028e+18,-0.050017401576042175,0.6494271755218506,-0.2059013396501541,10.220847129821777
1.771062959846992e+18,0.011706200428307056,0.5590460896492004,0.040701426565647125,10.231021881103516
1.7710629598977777e+18,-0.04469640180468559,0.93254154920578,0.02693476900458336,10.574589729309082
1.7710629599470228e+18,0.0,0.028131868690252304,-0.48123452067375183,10.139444351196289
1.771062959996951e+18,0.035118598490953445,0.3130418658256531,0.7673416137695312,10.229227066040039
1.771062960047016e+18,-0.004256799817085266,-0.2238578498363495,-0.5997475385665894,9.57979965209961
1.7710629600970263e+18,0.01809139922261238,0.7134720683097839,0.08559270948171616,9.742605209350586
1.7710629601470277e+18,-0.07555820047855377,0.3776853084564209,-0.32680851221084595,10.617087364196777
1.7710629601970284e+18,-0.015962999314069748,0.152031809091568,-0.017956512048840523,10.082581520080566
1.7710629602470351e+18,-0.03299019858241081,0.014963760040700436,-0.424970805644989,10.766724586486816
1.7710629602969546e+18,-0.06172360107302666,0.667982280254364,-0.181959331035614,10.241796493530273
1.7710629603469985e+18,0.053210001438856125,-1.5203180313110352,0.9546878933906555,10.24658489227295
1.771062960397034e+18,-0.05427420139312744,1.1300631761550903,-0.7715314626693726,11.586140632629395
1.771062960447043e+18,0.07023719698190689,-0.6260837316513062,1.2360066175460815,10.084976196289062
1.7710629604970437e+18,-0.03724699839949608,-0.812831461429596,-0.0077811554074287415,10.122086524963379
1.7710629605470336e+18,0.028733400627970695,0.7098807692527771,-0.1909375786781311,9.716268539428711
1.771062960597026e+18,0.02128399908542633,0.016160860657691956,0.6913257241249084,10.490793228149414
1.771062960646961e+18,-0.059595201164484024,0.1478419452905655,-1.3401544094085693,10.186729431152344
1.771062960697028e+18,0.059595201164484024,0.8708908557891846,0.4040215313434601,9.14704704284668
1.7710629607470129e+18,-0.0649162009358406,0.012569558806717396,-0.8535329103469849,9.640851974487305
1.7710629607969661e+18,-0.08620020002126694,0.39145198464393616,-0.5524620413780212,11.331157684326172
1.7710629608470336e+18,0.06065940111875534,-0.23523031175136566,0.5081692934036255,9.611522674560547
1.7710629608969848e+18,-0.1096125990152359,0.1256955862045288,-1.0486602783203125,9.240421295166016
1.771062960946968e+18,-0.0649162009358406,0.5273228883743286,-0.5201402902603149,10.211868286132812
1.7710629609970232e+18,0.03724699839949608,-0.1711854189634323,0.08379705995321274,9.734225273132324
1.7710629610470272e+18,-0.10109899938106537,-0.36750996112823486,-0.5817909836769104,11.353303909301758
1.7710629610970294e+18,-0.08513599634170532,-0.36332011222839355,-0.6937199234962463,9.667187690734863
1.7710629611470625e+18,-0.009577799588441849,-0.2059013396501541,0.15023615956306458,10.666767120361328
1.7710629611973852e+18,0.050017401576042175,-0.02992752008140087,1.1569979190826416,9.866504669189453
1.771062961247019e+18,0.023412400856614113,0.6416460275650024,1.0881646871566772,9.280524253845215
1.7710629612970289e+18,-0.011706200428307056,0.7086836695671082,-0.13587094843387604,10.380061149597168
1.7710629613470397e+18,0.06172360107302666,0.3214215636253357,0.033518824726343155,8.652046203613281
1.7710629613969715e+18,0.043632201850414276,-0.30526071786880493,-0.06584054231643677,10.690709114074707
1.771062961447047e+18,-0.08087919652462006,-0.416591078042984,-0.13347674906253815,11.757326126098633
1.7710629614970314e+18,-0.009577799588441849,0.5117605924606323,0.4082113802433014,11.792640686035156
1.77106296154722e+18,-0.019155599176883698,0.9229647517204285,0.6105214357376099,11.993154525756836
1.7710629615969577e+18,0.0840718001127243,-0.8792705535888672,1.532887578010559,9.958083152770996
1.7710629616470188e+18,0.0840718001127243,-1.1330559253692627,1.8555063009262085,9.761159896850586
1.7710629616970153e+18,-0.022348200902342796,-1.2473790645599365,-0.9187749028205872,11.729792594909668
1.7710629617470203e+18,0.06065940111875534,1.0301052331924438,-0.7230489253997803,11.406575202941895
1.7710629617970112e+18,0.056402601301670074,1.5951368808746338,-0.3860650062561035,9.752182006835938
1.7710629618469596e+18,0.046824801713228226,0.7930793166160583,1.7447744607925415,9.461286544799805
1.7710629618970307e+18,-0.053210001438856125,1.291073203086853,-0.16579847037792206,9.263764381408691
1.7710629619470945e+18,-0.028733400627970695,0.7272387742996216,-0.325611412525177,9.905410766601562
1.7710629619970156e+18,0.03724699839949608,0.8792705535888672,0.15741875767707825,8.71070384979248
1.7710629620470228e+18,-0.04043959826231003,0.6428431272506714,0.9421183466911316,8.49941635131836
1.7710629620970511e+18,-0.03086180053651333,0.619499683380127,0.669179379940033,10.058639526367188
1.771062962147105e+18,-0.04576060175895691,0.6356605291366577,-0.10654197633266449,9.987412452697754
1.7710629621969846e+18,0.031925998628139496,0.47405192255973816,-0.23403321206569672,8.01339340209961
1.7710629622470016e+18,0.019155599176883698,0.8032546639442444,-0.657806932926178,10.44470500946045
1.7710629622969761e+18,0.009577799588441849,0.08319851011037827,0.3345896899700165,9.73661994934082
1.7710629623470052e+18,-0.01809139922261238,-0.06344634294509888,0.4291606545448303,11.01512336730957
1.7710629623969792e+18,-0.050017401576042175,1.0205284357070923,0.2537853717803955,10.392032623291016
1.771062962447007e+18,0.06278780102729797,-0.33698388934135437,-0.08918400853872299,9.857526779174805
1.771062962496974e+18,-0.07023719698190689,-0.8978255987167358,-0.547075092792511,11.516708374023438
1.7710629625472128e+18,-0.050017401576042175,-0.7433996200561523,-1.1288660764694214,12.278663635253906
1.7710629625970744e+18,-0.020219799131155014,0.23762451112270355,0.547075092792511,11.274893760681152
1.7710629626472364e+18,0.09152120351791382,-0.6757634282112122,0.5135562419891357,10.550647735595703
1.771062962697046e+18,0.08087919652462006,-1.1019313335418701,1.1767500638961792,9.549273490905762
1.7710629627470116e+18,-0.053210001438856125,-0.9744400978088379,-1.0690110921859741,12.530054092407227
1.7710629627970826e+18,0.05533840134739876,1.172560214996338,0.3100491166114807,10.894814491271973
1.7710629628470822e+18,0.06704460084438324,0.1999158412218094,-0.22625206410884857,10.978611946105957
1.7710629628971392e+18,0.09790640324354172,-0.5710170865058899,1.956661343574524,9.746196746826172
1.7710629629470162e+18,-0.0713014006614685,-0.7439981698989868,-1.1121066808700562,11.71662425994873
1.7710629629969838e+18,-0.10216320306062698,-0.10773907601833344,-0.9163807034492493,9.583390235900879
1.77106296304702e+18,0.03299019858241081,0.2968810200691223,0.10833762586116791,10.740388870239258
1.7710629630970304e+18,0.011706200428307056,-1.2401964664459229,1.6555904150009155,10.233416557312012
1.7710629631470198e+18,0.017027199268341064,-0.2579752206802368,1.470638394355774,9.766547203063965
1.771062963197022e+18,-0.056402601301670074,0.04848258197307587,-0.5159504413604736,9.439140319824219
1.7710629632470374e+18,0.029797600582242012,0.9361328482627869,-0.16340425610542297,10.844536781311035
1.7710629632970225e+18,0.038311198353767395,1.1150994300842285,0.17956513166427612,9.375693321228027
1.7710629633469532e+18,0.0,-1.01753568649292,1.5514426231384277,8.810063362121582
1.771062963397032e+18,-0.07875079661607742,1.315613865852356,-0.7374141216278076,10.034099578857422
1.771062963446979e+18,-0.04469640180468559,1.0324994325637817,-0.01735796220600605,10.837952613830566
1.7710629634970028e+18,0.05533840134739876,0.6979097723960876,-0.5596446394920349,9.59296703338623
1.771062963547024e+18,0.0,0.031124621629714966,1.2641384601593018,8.456918716430664
1.771062963597039e+18,-0.0063852001912891865,0.02753331884741783,0.8421604633331299,9.336788177490234
1.771062963647019e+18,-0.038311198353767395,1.0181342363357544,-0.14425064623355865,12.48935317993164
1.7710629636970266e+18,0.04576060175895691,-0.2717418968677521,-0.4213795065879822,9.855731010437012
1.7710629637470167e+18,0.08300759643316269,-0.9959878921508789,0.0071826050989329815,10.271723747253418
1.7710629637970176e+18,-0.04895320162177086,-0.5249286890029907,-0.406415730714798,10.46206283569336
1.771062963847028e+18,0.07449399679899216,0.36750996112823486,0.08259996026754379,12.103886604309082
1.7710629638970153e+18,0.09364960342645645,0.32501286268234253,0.11133037507534027,11.9213285446167
1.7710629639470333e+18,0.06278780102729797,-0.1215057373046875,0.8361749053001404,10.110115051269531
1.7710629639970263e+18,-0.1096125990152359,-0.99479079246521,-1.0007762908935547,11.003151893615723
1.7710629640470449e+18,-0.11174099892377853,-0.3298012912273407,-1.3958195447921753,11.35509967803955
1.7710629640969574e+18,0.019155599176883698,0.12928688526153564,0.25917232036590576,10.047266960144043
1.7710629641470244e+18,0.017027199268341064,-0.5363011956214905,1.3850456476211548,10.327987670898438
1.7710629641971935e+18,0.0063852001912891865,0.104147769510746,1.7723077535629272,9.1446533203125
1.771062964246964e+18,-0.05746680125594139,-0.48722004890441895,-0.7356184720993042,9.499593734741211
1.7710629642970278e+18,-0.06278780102729797,0.5297170877456665,-0.2717418968677521,10.0580415725708
1.7710629643470377e+18,0.019155599176883698,0.32680851221084595,-0.5602431893348694,9.518148422241211
1.7710629643969656e+18,0.0,-0.45070844888687134,1.5155296325683594,9.424775123596191
1.7710629644470152e+18,-0.017027199268341064,-0.31124621629714966,1.358709454536438,8.53532886505127
1.7710629644969539e+18,-0.009577799588441849,1.6753425598144531,0.3148375153541565,11.027692794799805
1.7710629645470254e+18,0.05533840134739876,-0.1412578970193863,-0.30286651849746704,10.22623348236084
1.771062964597029e+18,0.02128399908542633,0.8708908557891846,-0.13946224749088287,9.334992408752441
1.771062964647109e+18,-0.05427420139312744,-1.3198037147521973,-0.17058686912059784,10.393828392028809
1.7710629646970176e+18,0.004256799817085266,0.2621650695800781,-0.05267243832349777,11.03367805480957
1.7710629647470126e+18,-0.019155599176883698,0.4704606235027313,0.08259996026754379,11.447875022888184
1.771062964797032e+18,0.06810879707336426,-0.363918662071228,0.7930793166160583,10.89301872253418
1.7710629648470444e+18,-0.07342980057001114,0.07422025501728058,-1.0115501880645752,10.128071784973145
1.771062964897058e+18,0.014898800291121006,0.0999579206109047,-0.6829460263252258,10.064624786376953
1.7710629649470316e+18,0.06065940111875534,0.355538934469223,-0.152031809091568,9.975440979003906
1.7710629649970081e+18,0.010641999542713165,-0.6099228858947754,1.082777738571167,9.28531265258789
1.771062965047045e+18,-0.053210001438856125,-1.0067617893218994,0.13826514780521393,10.025120735168457
1.7710629650970312e+18,-0.038311198353767395,0.42676645517349243,-0.25677812099456787,10.410587310791016
1.7710629651470272e+18,0.041503798216581345,0.6224924325942993,0.5345055460929871,9.651026725769043
1.771062965197028e+18,0.0,-0.40282443165779114,1.868674397468567,9.324816703796387
1.7710629652470356e+18,-0.04895320162177086,0.4620809257030487,-0.9415197968482971,9.452906608581543
1.7710629652969774e+18,0.03618279844522476,0.7410054206848145,-0.11911153048276901,10.409390449523926
1.7710629653470454e+18,0.009577799588441849,0.6985083222389221,-0.5536591410636902,9.75637149810791
1.7710629653970532e+18,-0.04576060175895691,-0.4884171485900879,0.9576806426048279,9.922170639038086
1.7710629654470523e+18,-0.04788900166749954,-1.1438298225402832,-0.13946224749088287,10.433332443237305
1.7710629654970376e+18,-0.04256799817085266,1.4838064908981323,0.1646013706922531,7.950545310974121
1.7710629655471304e+18,0.02128399908542633,0.7835025191307068,1.2539631128311157,9.173982620239258
1.771062965597018e+18,0.0,-0.5680243372917175,1.7471686601638794,9.734225273132324
1.7710629656471012e+18,-0.04043959826231003,1.0444704294204712,0.20769698917865753,11.768698692321777
1.771062965697046e+18,0.02128399908542633,0.05925649031996727,-0.2106897532939911,9.223661422729492
1.771062965747034e+18,0.009577799588441849,0.6153098344802856,0.5907692313194275,10.575188636779785
1.7710629657970337e+18,-0.13089659810066223,-0.6380547285079956,-0.9510965943336487,10.04427433013916
1.7710629658470354e+18,-0.020219799131155014,0.32441431283950806,-0.3579331338405609,10.356119155883789
1.7710629658970284e+18,0.08513599634170532,0.8541314601898193,-0.31543606519699097,9.763554573059082
1.7710629659470505e+18,-0.026605000719428062,-0.8978255987167358,-0.416591078042984,10.724227905273438
1.7710629659969792e+18,-0.038311198353767395,0.284311443567276,-0.8972270488739014,10.124480247497559
1.7710629660470454e+18,0.053210001438856125,0.5404910445213318,-0.02274491637945175,10.196306228637695
1.7710629660969933e+18,-0.011706200428307056,-1.0193313360214233,0.6913257241249084,9.86231517791748
1.77106296614704e+18,-0.0713014006614685,-0.1496376097202301,-0.9127894043922424,10.28130054473877
1.7710629661970358e+18,0.004256799817085266,0.39803603291511536,-0.22625206410884857,9.747992515563965
1.7710629662471053e+18,-0.0649162009358406,-0.5045779943466187,0.3794809579849243,10.29985523223877
1.771062966297161e+18,-0.09790640324354172,-0.5907692313194275,-0.6039373874664307,10.038289070129395
1.7710629663471002e+18,0.0,0.3842693567276001,0.37169981002807617,9.548674583435059
1.7710629663969777e+18,-0.01809139922261238,-0.30226796865463257,1.834557056427002,9.103353500366211
1.771062966447027e+18,-0.053210001438856125,-0.28790274262428284,0.6649895310401917,10.466851234436035
1.7710629664969649e+18,-0.04576060175895691,0.9493009448051453,0.03411737456917763,9.981427192687988
1.771062966547141e+18,0.06810879707336426,-0.28550854325294495,0.7481880187988281,9.939528465270996
1.7710629665971013e+18,0.05108160153031349,-0.3621230125427246,1.368884801864624,9.915586471557617
1.7710629666469955e+18,-0.012770400382578373,0.2735375463962555,0.15143325924873352,10.485405921936035
1.7710629666970312e+18,0.043632201850414276,0.6488286256790161,0.5225344896316528,10.462660789489746
1.7710629667471828e+18,0.009577799588441849,-0.3130418658256531,1.6178817749023438,9.254786491394043
1.7710629667971837e+18,-0.0840718001127243,0.6422445774078369,0.0999579206109047,11.238981246948242
1.7710629668471905e+18,0.008513599634170532,0.3705027103424072,-0.46148237586021423,9.749787330627441
1.7710629668970396e+18,0.03086180053651333,0.2256534993648529,1.1186907291412354,10.104727745056152
1.7710629669469745e+18,-0.11706200242042542,0.5339069962501526,-0.7978677153587341,9.865906715393066
1.7710629669971446e+18,0.007449400145560503,0.5015852451324463,-0.12868833541870117,9.77133560180664
1.7710629670470415e+18,0.05214580148458481,-0.05027823522686958,-0.5027823448181152,9.792882919311523
1.7710629670970483e+18,-0.03299019858241081,-0.5273228883743286,0.02513911761343479,10.547057151794434
1.771062967147204e+18,0.0,0.4818330705165863,0.24600422382354736,10.002375602722168
1.771062967197102e+18,0.03086180053651333,0.9768342971801758,-0.6129156351089478,12.269086837768555
1.7710629672470356e+18,0.029797600582242012,-0.9409212470054626,0.821809709072113,9.764751434326172
1.7710629672970145e+18,-0.019155599176883698,0.9882067441940308,0.03770867735147476,9.928155899047852
1.771062967347012e+18,-0.01383460033684969,0.12270283699035645,-0.06344634294509888,10.34833812713623
1.7710629673970557e+18,-0.004256799817085266,-0.2753331959247589,1.24917471408844,9.748590469360352
1.7710629674469924e+18,-0.0713014006614685,1.4484920501708984,-0.032920271158218384,10.615291595458984
1.7710629674970957e+18,-0.09364960342645645,1.2533645629882812,-0.013766659423708916,10.290877342224121
1.7710629675470963e+18,0.02128399908542633,-0.15083470940589905,1.026513934135437,10.681730270385742
1.7710629675971028e+18,-0.11386939883232117,0.712274968624115,-0.3315969407558441,10.499771118164062
1.771062967647066e+18,-0.04043959826231003,0.6075286865234375,0.11971008032560349,9.891644477844238
1.7710629676969935e+18,0.041503798216581345,-0.2627636194229126,0.4578910768032074,9.966463088989258
1.7710629677469627e+18,-0.056402601301670074,0.2555810213088989,-0.28969839215278625,9.936535835266113
1.7710629677970399e+18,-0.022348200902342796,1.2904746532440186,-0.19213467836380005,10.357316017150879
1.771062967846975e+18,0.020219799131155014,0.24241292476654053,0.033518824726343155,10.395623207092285
1.7710629678970237e+18,-0.10854840278625488,-0.208295539021492,-0.872686505317688,10.797250747680664
1.7710629679470935e+18,-0.06385199725627899,1.2078747749328613,-0.5003881454467773,11.469423294067383
1.7710629679969513e+18,0.0,0.6901286244392395,-0.3926490843296051,9.068038940429688
1.7710629680470958e+18,-0.08194340020418167,-1.0319008827209473,-0.6452373266220093,10.60511589050293
1.771062968097039e+18,-0.10429160296916962,0.45010989904403687,-0.5500678420066833,10.193912506103516
1.7710629681469804e+18,0.019155599176883698,1.0642226934432983,0.11192892491817474,9.349955558776855
1.7710629681971018e+18,0.0,-0.5213373899459839,1.0498573780059814,10.272920608520508
1.7710629682470833e+18,-0.08726440370082855,-0.851138710975647,-0.8152256608009338,10.487201690673828
1.7710629682969756e+18,0.02447660081088543,0.7906851172447205,0.11851298063993454,10.631452560424805
1.7710629683469752e+18,0.0649162009358406,0.2298433631658554,1.6089035272598267,9.175179481506348
1.7710629683971707e+18,0.029797600582242012,-0.9313444495201111,0.2717418968677521,10.107721328735352
1.7710629684471383e+18,-0.03618279844522476,0.7416039705276489,-0.06643909960985184,10.392032623291016
1.7710629684970102e+18,0.03086180053651333,-0.0694318488240242,1.611896276473999,9.639056205749512
1.771062968547137e+18,-0.04469640180468559,-0.5530605912208557,1.01753568649292,9.408015251159668
1.7710629685971397e+18,-0.10109899938106537,0.761954665184021,-0.12928688526153564,11.171943664550781
1.7710629686471032e+18,0.03618279844522476,-0.07182604819536209,0.4800374209880829,10.006566047668457
1.7710629686970442e+18,0.01809139922261238,-0.6338648796081543,1.4903905391693115,10.261548042297363
1.7710629687469809e+18,-0.09152120351791382,0.07182604819536209,-0.228047713637352,9.496601104736328
1.771062968797173e+18,-0.017027199268341064,1.1982979774475098,-0.09157821536064148,9.838373184204102
1.7710629688471142e+18,0.056402601301670074,-0.11611878126859665,0.3561374843120575,9.911396026611328
1.7710629688971116e+18,-0.04788900166749954,0.0071826050989329815,-0.6560112833976746,10.567407608032227
1.7710629689470461e+18,-0.01383460033684969,0.2585737705230713,0.04429272934794426,9.213486671447754
1.7710629689971095e+18,0.04043959826231003,0.48063597083091736,0.2454056739807129,8.662221908569336
1.7710629690470528e+18,-0.05853100121021271,-0.760757565498352,-0.8140285611152649,9.77672290802002
1.77106296909715e+18,0.029797600582242012,0.2783259451389313,0.28371289372444153,9.481039047241211
1.7710629691470666e+18,0.0,1.0420762300491333,-0.18974047899246216,10.453682899475098
1.771062969197856e+18,-0.026605000719428062,-0.9840168952941895,0.6009446382522583,10.434529304504395
1.7710629692470927e+18,-0.06810879707336426,1.0414776802062988,-0.17657236754894257,10.451289176940918
1.771062969296995e+18,-0.04895320162177086,0.6919242739677429,0.37828385829925537,9.786299705505371
1.7710629693470193e+18,0.056402601301670074,-0.29628247022628784,1.699883222579956,8.757390975952148
1.7710629693970683e+18,-0.04043959826231003,0.4291606545448303,-0.05925649031996727,10.335169792175293
1.7710629694472064e+18,0.04043959826231003,0.5081692934036255,-0.033518824726343155,9.227851867675781
1.7710629694970463e+18,0.11493360251188278,-0.3543418347835541,1.4778209924697876,9.419986724853516
1.7710629695471414e+18,-0.005320999771356583,0.9050082564353943,-0.304063618183136,10.772111892700195
1.7710629695969708e+18,-0.02766920067369938,0.6590040326118469,-0.04010287672281265,9.99100399017334
1.7710629696469727e+18,0.025540800765156746,0.26156651973724365,0.7685387134552002,10.3549222946167
1.771062969697115e+18,-0.10642000287771225,-0.5045779943466187,-0.31364041566848755,10.069413185119629
1.7710629697469768e+18,-0.09152120351791382,0.6763619780540466,-0.2472013235092163,11.407772064208984
1.7710629697969644e+18,0.03937539830803871,-0.1999158412218094,-0.14604629576206207,10.322001457214355
1.7710629698470426e+18,-0.06917300075292587,-0.5602431893348694,-0.9558849930763245,10.684723854064941
1.7710629698971018e+18,-0.07342980057001114,-0.17717091739177704,-0.31783026456832886,9.520543098449707
1.7710629699471457e+18,0.004256799817085266,0.6075286865234375,0.05446808785200119,10.33098030090332
1.7710629699971884e+18,-0.053210001438856125,-0.7493851184844971,0.4207809269428253,10.429740905761719
1.7710629700471583e+18,-0.059595201164484024,-0.7368155717849731,-0.5704185366630554,11.382034301757812
1.7710629700970604e+18,0.004256799817085266,0.4578910768032074,0.1867477297782898,9.191938400268555
1.7710629701471716e+18,-0.004256799817085266,-0.6458358764648438,1.3982137441635132,9.531915664672852
1.7710629701970255e+18,-0.03405439853668213,-0.4967968463897705,-0.4405331015586853,11.021108627319336
1.7710629702469837e+18,-0.005320999771356583,0.27653029561042786,0.518943190574646,9.330801963806152
1.771062970297164e+18,0.02766920067369938,-0.5063736438751221,1.1659761667251587,10.415375709533691
1.7710629703471432e+18,-0.04788900166749954,-1.048061728477478,0.761954665184021,9.324816703796387
1.7710629703969946e+18,-0.08300759643316269,1.2348095178604126,-0.090979665517807,10.755950927734375
1.7710629704470497e+18,0.06065940111875534,-0.14065934717655182,0.8307879567146301,9.494206428527832
1.7710629704969516e+18,0.0776866003870964,-0.4429273009300232,1.348534107208252,9.603741645812988
1.7710629705471565e+18,-0.03299019858241081,1.206079125404358,-0.12389993667602539,10.648211479187012
1.771062970596996e+18,0.06917300075292587,0.40940847992897034,-0.23822306096553802,9.958083152770996
1.7710629706470976e+18,0.11280520260334015,0.2908954918384552,1.0833762884140015,10.869675636291504
1.7710629706970166e+18,-0.06385199725627899,0.8643068075180054,-0.47225627303123474,10.81820011138916
1.7710629707471675e+18,0.022348200902342796,-0.32860419154167175,-0.3315969407558441,9.517550468444824
1.7710629707970317e+18,0.03724699839949608,0.025737667456269264,0.7691372632980347,9.1632080078125
1.7710629708470825e+18,-0.11919040232896805,0.2926911413669586,-0.7493851184844971,10.690110206604004
1.771062970897113e+18,0.05533840134739876,0.8254010081291199,0.28730419278144836,9.973645210266113
1.7710629709472067e+18,0.05214580148458481,0.2495955228805542,-0.406415730714798,9.824007987976074
1.7710629709970662e+18,0.004256799817085266,-1.0648212432861328,0.16160860657691956,9.753378868103027
1.7710629710471864e+18,0.05427420139312744,0.7038952708244324,0.4513069987297058,10.168174743652344
1.7710629710970276e+18,0.09471379965543747,-0.2825157940387726,0.4315548539161682,9.09377670288086
1.7710629711471951e+18,0.0649162009358406,-1.857301950454712,0.6769605278968811,9.851541519165039
1.7710629711970422e+18,0.15963000059127808,1.1109095811843872,0.11312603205442429,11.540650367736816
1.7710629712471416e+18,0.16495099663734436,0.7416039705276489,0.21009118854999542,9.895833969116211
1.7710629712970583e+18,0.0904569998383522,0.10474631935358047,-1.4748282432556152,9.55825138092041
1.771062971347005e+18,0.15750159323215485,1.0654197931289673,0.33758243918418884,9.920374870300293
1.7710629713970998e+18,0.08939280360937119,0.7972691655158997,0.6619967818260193,10.474632263183594
1.771062971447011e+18,0.011706200428307056,-0.060453593730926514,-0.5919663310050964,9.079411506652832
1.7710629714971912e+18,0.141538605093956,0.0867898091673851,1.5532382726669312,9.442132949829102
1.77106297154709e+18,0.13834600150585175,0.4596867263317108,1.1025298833847046,10.72722053527832
1.771062971596967e+18,0.04469640180468559,-0.46806642413139343,-0.6685808300971985,8.975263595581055
1.7710629716471823e+18,0.13089659810066223,0.41958382725715637,0.395043283700943,9.797073364257812
1.7710629716970196e+18,0.2128400057554245,-0.4231751561164856,1.0145429372787476,9.832387924194336
1.7710629717477737e+18,0.0,0.06165069341659546,-1.4293383359909058,10.322600364685059
1.771062971797057e+18,0.11280520260334015,1.0097545385360718,-0.5805938839912415,9.88625717163086
1.7710629718471672e+18,0.14473119378089905,0.5692214369773865,-0.050876785069704056,9.955090522766113
1.7710629718970312e+18,0.02766920067369938,0.1604115068912506,-0.3423708379268646,10.059836387634277
1.771062971947147e+18,0.0904569998383522,0.03411737456917763,0.25498247146606445,8.67479133605957
1.77106297199709e+18,0.11493360251188278,0.6332663297653198,0.4315548539161682,10.251971244812012
1.771062972047044e+18,0.1287682056427002,-0.6697779297828674,0.7769184112548828,10.111311912536621
1.7710629720970988e+18,0.0840718001127243,1.0576385259628296,-0.03232172131538391,10.7326078414917
1.7710629721471165e+18,0.017027199268341064,0.8295908570289612,0.6596025824546814,10.012551307678223
1.771062972197045e+18,0.03618279844522476,0.11791443079710007,-1.0247182846069336,9.70310115814209
1.7710629722471465e+18,0.11174099892377853,0.7906851172447205,0.7775169610977173,10.639832496643066
1.7710629722969828e+18,0.10003480315208435,0.6799532771110535,0.7320271730422974,9.917980194091797
1.771062972347073e+18,0.07875079661607742,0.20051439106464386,-0.5614402890205383,10.190918922424316
1.7710629723970307e+18,0.14685960114002228,-0.447715699672699,1.764526605606079,8.877699851989746
1.7710629724471782e+18,0.15111640095710754,0.4866214990615845,1.470638394355774,9.537900924682617
1.7710629724970135e+18,0.028733400627970695,-0.1149216815829277,-0.37169981002807617,10.40460205078125
1.7710629725471718e+18,0.1479237973690033,0.14365209639072418,0.35494038462638855,10.116100311279297
1.771062972596989e+18,0.18197819590568542,-0.24600422382354736,1.6591817140579224,10.429740905761719
1.7710629726470638e+18,-0.020219799131155014,0.788889467716217,-0.3292027413845062,11.953051567077637
1.7710629726969756e+18,0.12131880223751068,-0.13168108463287354,-0.31543606519699097,8.71609115600586
1.7710629727471014e+18,0.03618279844522476,0.9516951441764832,0.10893617570400238,10.142436981201172
1.771062972797079e+18,0.0649162009358406,-0.34656068682670593,0.5482721924781799,9.748590469360352
1.7710629728470124e+18,0.043632201850414276,0.4471171498298645,-0.166995570063591,9.442730903625488
1.7710629728970872e+18,0.04895320162177086,-0.01975216343998909,0.6206967830657959,9.676764488220215
1.7710629729470006e+18,0.15111640095710754,-0.33758243918418884,0.48961424827575684,10.22383975982666
1.7710629729972114e+18,0.142602801322937,0.37229835987091064,0.5758054852485657,10.354323387145996
1.7710629730470794e+18,0.12557560205459595,0.5297170877456665,0.7308300733566284,9.849745750427246
1.771062973096966e+18,0.14047439396381378,0.5722141861915588,-0.03651157394051552,10.295066833496094
1.77106297314763e+18,0.1681436002254486,-0.38546645641326904,1.5945383310317993,9.465476036071777
1.7710629731970294e+18,0.05533840134739876,0.03770867735147476,-0.09516951441764832,10.13286018371582
1.7710629732470746e+18,0.07981500029563904,0.8176198601722717,-0.43335050344467163,10.199298858642578
1.7710629732969833e+18,0.10748419910669327,1.6077064275741577,-0.32022446393966675,10.590152740478516
1.771062973347114e+18,0.04576060175895691,0.2627636194229126,0.7697358131408691,10.622474670410156
1.7710629733969853e+18,0.056402601301670074,0.882861852645874,-0.3842693567276001,11.405976295471191
1.7710629734471703e+18,0.06598039716482162,0.11372458189725876,0.2627636194229126,9.623493194580078
1.7710629734970017e+18,0.05746680125594139,-1.2731167078018188,1.2551602125167847,9.886856079101562
1.7710629735470853e+18,0.01809139922261238,0.6979097723960876,-0.2908954918384552,11.927313804626465
1.7710629735969551e+18,0.050017401576042175,0.895431399345398,0.43095630407333374,9.792882919311523
1.771062973647066e+18,0.141538605093956,-0.569819986820221,0.3711012601852417,9.75517463684082
1.7710629736974054e+18,0.141538605093956,1.0336965322494507,0.13946224749088287,11.543045043945312
1.7710629737470828e+18,0.142602801322937,0.7649474143981934,0.6751648783683777,10.161590576171875
1.7710629737969777e+18,0.06278780102729797,0.0035913025494664907,-1.4071919918060303,10.181941032409668
1.771062973847014e+18,0.09897059947252274,0.5578489899635315,-0.8391676545143127,11.041459083557129
1.7710629738971052e+18,0.10216320306062698,0.06464344263076782,0.6093243360519409,10.791265487670898
1.7710629739470024e+18,0.005320999771356583,-0.7763198614120483,-0.8110358119010925,8.513781547546387
1.7710629739970703e+18,0.05533840134739876,-0.0628477931022644,-0.6584054827690125,9.514557838439941
1.7710629740472054e+18,0.18410660326480865,-0.7338228225708008,1.2449848651885986,9.393052101135254
1.7710629740969997e+18,0.06278780102729797,-0.0933738648891449,-0.729034423828125,8.867524147033691
1.771062974147514e+18,0.04788900166749954,0.20350714027881622,-1.2611457109451294,9.55825138092041
1.7710629741970312e+18,0.1990053951740265,0.5374982953071594,0.14425064623355865,9.166200637817383
1.7710629742470781e+18,0.04256799817085266,-1.127070426940918,-0.7350199222564697,10.766724586486816
1.771062974297029e+18,0.011706200428307056,1.1348515748977661,-0.71766197681427,11.556811332702637
1.7710629743469755e+18,0.12663979828357697,0.3705027103424072,0.406415730714798,9.065046310424805
1.771062974397078e+18,0.11174099892377853,-1.890222191810608,0.10115502029657364,9.583390235900879
1.77106297444719e+18,0.09897059947252274,-0.751779317855835,0.3824737071990967,10.770316123962402
1.7710629744970865e+18,0.07449399679899216,0.0652419924736023,0.8541314601898193,9.676764488220215
1.7710629745470825e+18,0.02128399908542633,-0.3357867896556854,-1.1510124206542969,9.990405082702637
1.7710629745969613e+18,0.10642000287771225,-0.26396071910858154,-0.12090718746185303,10.31721305847168
1.771062974647082e+18,0.07555820047855377,0.608127236366272,0.4531026780605316,10.58117389678955
1.771062974697601e+18,0.028733400627970695,-0.49140989780426025,-0.6619967818260193,9.481039047241211
1.771062974747177e+18,0.09364960342645645,1.0396820306777954,-0.7661445140838623,10.726621627807617
1.77106297479697e+18,0.20219799876213074,-0.5704185366630554,0.954089343547821,9.552865028381348
1.7710629748471688e+18,0.07875079661607742,-0.8481459617614746,-0.5752069354057312,9.520543098449707
1.7710629748970655e+18,0.08832859992980957,-0.06165069341659546,-0.10235211998224258,9.923367500305176
1.771062974947182e+18,0.19687700271606445,-0.6272808313369751,1.081580638885498,10.204087257385254
1.7710629749970947e+18,0.05108160153031349,0.04429272934794426,-0.6775590777397156,10.284293174743652
1.771062975047089e+18,0.14473119378089905,0.7493851184844971,-0.2472013235092163,9.949105262756348
1.771062975097053e+18,0.1096125990152359,0.7074865698814392,0.0017956512747332454,10.056245803833008
1.7710629751469798e+18,0.023412400856614113,-1.0708067417144775,-0.11611878126859665,8.972868919372559
1.771062975197105e+18,0.023412400856614113,1.1444283723831177,0.1825578808784485,8.981847763061523
1.7710629752470838e+18,0.03299019858241081,-0.15801730751991272,0.33099839091300964,8.952518463134766
1.771062975297069e+18,0.0968421995639801,-1.4413094520568848,0.0065840547904372215,8.791508674621582
1.7710629753471104e+18,0.10854840278625488,0.9157821536064148,0.5758054852485657,9.306859970092773
1.771062975397095e+18,0.05853100121021271,0.9445125460624695,0.25677812099456787,9.331999778747559
1.7710629754470743e+18,0.1096125990152359,0.40940847992897034,-0.9433154463768005,8.831012725830078
1.7710629754970808e+18,0.17027199268341064,0.596754789352417,0.669179379940033,9.510367393493652
1.7710629755470428e+18,0.1223829984664917,-0.033518824726343155,0.40282443165779114,10.38844108581543
1.7710629755974444e+18,0.06065940111875534,-0.2472013235092163,-0.3711012601852417,9.439140319824219
1.7710629756470428e+18,0.11812619864940643,-0.1496376097202301,1.488594889640808,8.648454666137695
1.7710629756970312e+18,0.14579540491104126,-0.37229835987091064,1.2336124181747437,9.068038940429688
1.771062975747078e+18,0.017027199268341064,0.20889408886432648,-0.5823895335197449,9.900622367858887
1.7710629757969815e+18,0.1351533979177475,0.2795230448246002,0.14484919607639313,9.627683639526367
1.771062975846991e+18,0.11386939883232117,-0.19632454216480255,1.302445650100708,10.129867553710938
1.7710629758970788e+18,0.019155599176883698,0.023343466222286224,-0.7751227617263794,11.010933876037598
1.7710629759471977e+18,0.08513599634170532,0.4129997789859772,-0.08080430328845978,10.390236854553223
1.77106297599703e+18,0.13621759414672852,0.4944026470184326,-0.04010287672281265,10.166976928710938
1.7710629760470807e+18,0.1223829984664917,0.208295539021492,-0.020949264988303185,9.278728485107422
1.7710629760970816e+18,0.13621759414672852,-0.15023615956306458,0.15801730751991272,10.726621627807617
1.7710629761471895e+18,0.04895320162177086,0.05686229094862938,0.22325929999351501,9.888651847839355
1.7710629761970977e+18,0.17559300363063812,-0.49320554733276367,0.910993754863739,9.973047256469727
1.7710629762470077e+18,0.11812619864940643,0.6518213748931885,0.6925228238105774,9.72285270690918
1.771062976297029e+18,0.015962999314069748,-0.15801730751991272,-0.20231004059314728,9.208099365234375
1.7710629763471652e+18,0.12557560205459595,-0.5237315893173218,0.1646013706922531,11.204863548278809
1.771062976397098e+18,0.13941019773483276,-0.09277531504631042,1.4077905416488647,9.90241813659668
1.7710629764470984e+18,0.08832859992980957,0.8044517636299133,0.3010708689689636,10.325592994689941
1.771062976497066e+18,0.04256799817085266,-0.1735796183347702,-1.3539210557937622,9.91977596282959
1.7710629765470387e+18,0.11386939883232117,1.0301052331924438,0.005985504016280174,9.632472038269043
1.7710629765969833e+18,0.08620020002126694,0.9062053561210632,0.8188169598579407,9.774927139282227
1.7710629766472364e+18,0.04256799817085266,-1.1085153818130493,-0.5237315893173218,9.780912399291992
1.7710629766970107e+18,0.11386939883232117,0.5009866952896118,-0.08200141042470932,9.41519832611084
1.771062976746963e+18,0.06704460084438324,-0.7080851197242737,0.447715699672699,9.909600257873535
1.771062976796972e+18,0.07449399679899216,-0.667982280254364,-0.1215057373046875,9.460089683532715
1.7710629768470272e+18,0.09897059947252274,0.8295908570289612,0.41120412945747375,10.070012092590332
1.7710629768974618e+18,0.07236559689044952,-0.9564835429191589,-0.40222588181495667,11.096526145935059
1.7710629769469934e+18,0.12131880223751068,-0.8283937573432922,0.4129997789859772,9.895235061645508
1.771062976997065e+18,0.015962999314069748,1.3227964639663696,0.07062894850969315,9.558850288391113
1.771062977047089e+18,0.029797600582242012,-0.9295487999916077,-1.0103530883789062,9.57560920715332
1.7710629770972e+18,0.05746680125594139,-0.8750807046890259,-0.12868833541870117,9.561244010925293
1.7710629771470328e+18,0.07449399679899216,0.8696937561035156,0.23582886159420013,11.455058097839355
1.7710629771972004e+18,0.07023719698190689,0.44173020124435425,-0.023942016065120697,9.998186111450195
1.771062977247086e+18,-0.008513599634170532,0.22685061395168304,-0.8720879554748535,8.978256225585938
1.771062977296965e+18,0.0904569998383522,0.2621650695800781,0.3315969407558441,11.267711639404297
1.7710629773471017e+18,0.0,0.579995334148407,0.535702645778656,10.038289070129395
1.7710629773970383e+18,-0.05108160153031349,-0.031124621629714966,-1.269525408744812,9.858723640441895
1.7710629774470318e+18,0.07449399679899216,0.7146691679954529,0.8361749053001404,10.670358657836914
1.7710629774969764e+18,0.03299019858241081,0.4129997789859772,0.14903905987739563,10.375272750854492
1.771062977547087e+18,-0.04788900166749954,-1.1743558645248413,-1.2180501222610474,10.594941139221191
1.7710629775970284e+18,0.06385199725627899,0.21128830313682556,1.4401123523712158,9.639056205749512
1.771062977647005e+18,0.06278780102729797,0.9014168977737427,1.0522515773773193,10.319607734680176
1.7710629776971471e+18,-0.07981500029563904,1.0348936319351196,0.6709750294685364,8.330025672912598
1.7710629777470433e+18,0.07981500029563904,-0.50876784324646,0.7487865686416626,10.277111053466797
1.7710629777970399e+18,0.0776866003870964,0.07122749835252762,0.7182605266571045,10.369287490844727
1.771062977847062e+18,-0.007449400145560503,0.2579752206802368,0.4537012279033661,9.977835655212402
1.7710629778971292e+18,0.008513599634170532,-0.8493430614471436,-0.23762451112270355,10.471639633178711
1.7710629779470454e+18,-0.01383460033684969,-0.14006079733371735,1.212663173675537,11.08754825592041
1.7710629779970813e+18,-0.08939280360937119,0.9941922426223755,-0.2663549482822418,11.07138729095459
1.7710629780470282e+18,-0.07236559689044952,-1.2006921768188477,0.46148237586021423,8.881291389465332
1.771062978096993e+18,-0.12344720214605331,-0.10474631935358047,-0.5141547918319702,9.741408348083496
1.771062978147044e+18,-0.08513599634170532,-0.5207388401031494,-0.07302314788103104,8.636484146118164
1.7710629781970573e+18,-0.1096125990152359,0.45250412821769714,0.9367313981056213,10.31721305847168
1.7710629782470362e+18,-0.11280520260334015,-0.18375498056411743,0.18734627962112427,10.627263069152832
1.7710629782969925e+18,-0.09471379965543747,0.5734112858772278,0.09157821536064148,10.685920715332031
1.7710629783470403e+18,-0.04256799817085266,-0.800261914730072,1.1294646263122559,10.268132209777832
1.7710629783970524e+18,-0.10109899938106537,0.22744916379451752,1.1857284307479858,10.014347076416016
1.7710629784470239e+18,-0.13302500545978546,0.3890577554702759,-0.6853402256965637,9.612719535827637
1.7710629784970383e+18,-0.04576060175895691,-0.28790274262428284,1.202487826347351,9.727641105651855
1.771062978546993e+18,-0.06917300075292587,0.16101005673408508,0.4824316203594208,9.704895973205566
1.7710629785970435e+18,-0.1096125990152359,-0.933738648891449,-0.6530184745788574,9.439738273620605
1.7710629786470413e+18,-0.03937539830803871,-0.06344634294509888,1.0199298858642578,9.662399291992188
1.7710629786971533e+18,-0.07236559689044952,0.5764040350914001,0.3926490843296051,11.735777854919434
1.7710629787470392e+18,-0.17559300363063812,0.5668272376060486,0.6859387755393982,9.001001358032227
1.771062978796977e+18,-0.10216320306062698,-0.3734954595565796,0.2711433470249176,8.668806076049805
1.7710629788470282e+18,-0.07342980057001114,-0.18076223134994507,-0.4321534037590027,10.314220428466797
1.7710629788969928e+18,-0.031925998628139496,0.6332663297653198,0.27473464608192444,9.29069995880127
1.7710629789471508e+18,-0.04788900166749954,-0.8565256595611572,0.7823054194450378,9.554061889648438
1.7710629789969812e+18,-0.1298324018716812,-0.7930793166160583,-0.4926069974899292,9.847949981689453
1.7710629790470257e+18,-0.14473119378089905,0.5979518890380859,0.09038111567497253,10.284293174743652
1.7710629790970422e+18,-0.10642000287771225,0.507570743560791,1.567603588104248,9.009381294250488
1.771062979147041e+18,-0.20539060235023499,0.3489548861980438,0.4626794755458832,10.20648193359375
1.7710629791969738e+18,-0.22880299389362335,0.5099649429321289,-0.18914192914962769,10.625467300415039
1.7710629792470067e+18,-0.16282260417938232,-0.17717091739177704,-0.0293289702385664,11.23179817199707
1.771062979297009e+18,-0.17133620381355286,0.18495208024978638,0.10295066982507706,10.439916610717773
1.771062979347059e+18,-0.19474859535694122,-0.507570743560791,0.23104046285152435,9.573813438415527
1.771062979397028e+18,-0.17559300363063812,1.634641170501709,0.1759738177061081,12.146982192993164
1.771062979446979e+18,-0.19155600666999817,0.8068459630012512,-0.3345896899700165,10.900201797485352
1.7710629794971932e+18,-0.12663979828357697,-0.9630675911903381,0.5722141861915588,10.645218849182129
1.771062979547011e+18,-0.2447659969329834,-0.4531026780605316,-1.3808557987213135,10.366294860839844
1.771062979597763e+18,-0.23093140125274658,-0.3100491166114807,-0.9923965930938721,10.525508880615234
1.7710629796470461e+18,-0.15643739700317383,0.09157821536064148,0.8846575021743774,9.533112525939941
1.7710629796969828e+18,-0.2000696063041687,0.4668693244457245,0.6117185354232788,8.814851760864258
1.7710629797470323e+18,-0.2586005926132202,0.2950853407382965,-0.2663549482822418,10.101137161254883
1.7710629797969933e+18,-0.17665719985961914,0.7104793190956116,-0.1999158412218094,12.22000503540039
1.7710629798470497e+18,-0.2256104052066803,0.38965630531311035,0.22924481332302094,9.601346969604492
1.7710629798969833e+18,-0.19794119894504547,0.3016694188117981,0.06763619929552078,8.842385292053223
1.771062979947111e+18,-0.2649857997894287,0.5937620401382446,-0.10833762586116791,10.730812072753906
1.771062979997103e+18,-0.2000696063041687,0.28072014451026917,-0.4471171498298645,11.523292541503906
1.7710629800471268e+18,-0.11280520260334015,0.090979665517807,0.667982280254364,11.563395500183105
1.771062980097039e+18,-0.1734645962715149,1.0414776802062988,0.028730420395731926,10.34953498840332
1.7710629801470405e+18,-0.206454798579216,0.5213373899459839,0.7451952695846558,10.320206642150879
1.7710629801970975e+18,-0.16388680040836334,-0.6015431880950928,0.1149216815829277,8.810063362121582
1.7710629802469745e+18,-0.14898799359798431,0.43335050344467163,-0.021547814831137657,9.29189682006836
1.7710629802969664e+18,-0.20432640612125397,0.1346738487482071,1.5939397811889648,9.118316650390625
1.7710629803469757e+18,-0.22986720502376556,1.004966139793396,0.8212111592292786,10.186729431152344
1.7710629803974513e+18,-0.270306795835495,0.05506663769483566,-0.45848962664604187,10.742782592773438
1.7710629804471035e+18,-0.18410660326480865,0.9840168952941895,0.5069721937179565,10.527304649353027
1.7710629804969946e+18,-0.1553732007741928,0.21308395266532898,0.30047231912612915,10.387842178344727
1.7710629805475581e+18,-0.21603259444236755,-0.12270283699035645,-1.1420341730117798,11.259331703186035
1.7710629805970588e+18,-0.141538605093956,-1.9536685943603516,-0.2561795711517334,10.205883026123047
1.7710629806471007e+18,-0.12131880223751068,0.7930793166160583,0.2190694510936737,11.12765121459961
1.7710629806969828e+18,-0.18197819590568542,0.4183867275714874,0.43514615297317505,10.83974838256836
1.7710629807470103e+18,-0.12344720214605331,0.6021417379379272,1.0720038414001465,9.147645950317383
1.7710629807970483e+18,-0.26072901487350464,-0.639850378036499,-1.2384008169174194,9.656414031982422
1.7710629808469903e+18,-0.17027199268341064,0.028131868690252304,0.8798691034317017,10.878653526306152
1.7710629808970248e+18,-0.09152120351791382,0.5991489887237549,0.9289502501487732,9.640851974487305
1.771062980946977e+18,-0.20432640612125397,0.9038110971450806,0.5740098357200623,9.727641105651855
1.7710629809969644e+18,-0.06917300075292587,-0.3387795388698578,0.28072014451026917,8.51258373260498
1.7710629810470392e+18,-0.18517079949378967,0.35494038462638855,-0.5321113467216492,11.200075149536133
1.771062981097008e+18,-0.19687700271606445,-0.08738835901021957,0.17896656692028046,8.873510360717773
1.7710629811470996e+18,-0.20539060235023499,0.090979665517807,0.34596213698387146,11.057022094726562
1.7710629811975493e+18,-0.23093140125274658,0.5297170877456665,-0.7062894701957703,10.868478775024414
1.771062981247115e+18,-0.14366699755191803,0.48901569843292236,-0.3148375153541565,11.209053993225098
1.7710629812969853e+18,-0.18836340308189392,0.24600422382354736,0.7314286231994629,10.2962646484375
1.7710629813469696e+18,-0.24370180070400238,0.8409633040428162,0.33518823981285095,9.673172950744629
1.7710629813969805e+18,-0.21496839821338654,-2.0428526401519775,-0.38127660751342773,10.201693534851074
1.7710629814471155e+18,-0.15856580436229706,0.6153098344802856,-0.09516951441764832,12.43967342376709
1.7710629814970358e+18,-0.1681436002254486,0.7218518257141113,-0.33039984107017517,10.676941871643066
1.7710629815471416e+18,-0.13621759414672852,-0.7368155717849731,0.9385270476341248,9.806051254272461
1.7710629815969843e+18,-0.24902279675006866,-0.5297170877456665,-1.136048674583435,8.773551940917969
1.7710629816470328e+18,-0.11919040232896805,0.48602294921875,1.1893197298049927,9.05487060546875
1.7710629816970363e+18,-0.12025459855794907,0.023942016065120697,0.9870096445083618,8.853757858276367
1.7710629817469837e+18,-0.22028939425945282,0.862511157989502,0.46507367491722107,9.55585765838623
1.7710629817970312e+18,-0.15218059718608856,-0.5536591410636902,0.5770025849342346,9.768342971801758
1.7710629818469706e+18,-0.1298324018716812,1.0001777410507202,0.43694180250167847,9.927556991577148
1.771062981897032e+18,-0.23093140125274658,-0.5668272376060486,-0.3411737382411957,10.438718795776367
1.771062981946966e+18,-0.19794119894504547,-0.8146271109580994,0.5315127968788147,11.25214958190918
1.7710629819970284e+18,-0.2447659969329834,-0.8403647541999817,-0.8008604645729065,9.583989143371582
1.7710629820470497e+18,-0.09790640324354172,0.6171054840087891,-0.45010989904403687,11.996147155761719
1.7710629820969784e+18,-0.10109899938106537,0.2513911724090576,1.335964560508728,10.130465507507324
1.7710629821470436e+18,-0.15005220472812653,0.14484919607639313,0.4902127981185913,10.075997352600098
1.7710629821969843e+18,-0.09152120351791382,-0.7200561761856079,-0.5883750319480896,9.5995512008667
1.7710629822469612e+18,-0.12344720214605331,-0.4171896278858185,0.33997663855552673,8.343792915344238
1.7710629822970373e+18,-0.22241780161857605,0.6631938815116882,-0.16400282084941864,9.332597732543945
1.7710629823470367e+18,-0.19581280648708344,-0.3262099623680115,1.2407950162887573,10.136451721191406
1.7710629823970394e+18,-0.2713710069656372,-0.061052143573760986,0.132279634475708,11.502942085266113
1.771062982447061e+18,-0.20326219499111176,0.28730419278144836,-0.24779987335205078,11.584942817687988
1.7710629824969684e+18,-0.19474859535694122,0.16519992053508759,0.9355342984199524,10.09934139251709
1.7710629825469926e+18,-0.19049179553985596,-0.06404489278793335,-0.15442600846290588,10.54765510559082
1.7710629825970337e+18,-0.22454619407653809,0.07721300423145294,-0.9768342971801758,9.387664794921875
1.7710629826470157e+18,-0.1298324018716812,0.7158662676811218,0.31543606519699097,11.941679000854492
1.7710629826971412e+18,-0.15750159323215485,0.618302583694458,-0.03651157394051552,9.563039779663086
1.771062982747039e+18,-0.19794119894504547,-0.152031809091568,0.11552023142576218,10.196905136108398
1.7710629827970752e+18,-0.24795860052108765,-1.1402385234832764,-0.8918401002883911,9.57560920715332
1.7710629828470323e+18,-0.19794119894504547,1.0522515773773193,-0.3884592056274414,10.65898609161377
1.7710629828969772e+18,-0.11812619864940643,-0.44592005014419556,1.003769040107727,10.327388763427734
1.771062982947038e+18,-0.21816100180149078,0.6560112833976746,-0.008978256024420261,10.704475402832031
1.7710629829970348e+18,-0.25434380769729614,0.9091981053352356,0.5805938839912415,9.263166427612305
1.7710629830469763e+18,-0.15750159323215485,-0.181959331035614,0.4596867263317108,9.885658264160156
1.7710629830970235e+18,-0.1670794039964676,0.24899697303771973,-0.17537526786327362,11.232995986938477
1.7710629831470664e+18,-0.19794119894504547,0.04249707981944084,-0.25079262256622314,10.770915031433105
1.7710629831970212e+18,-0.17772139608860016,-0.4141968786716461,0.1173158809542656,10.404003143310547
1.771062983247113e+18,-0.1553732007741928,0.8619126081466675,-0.2298433631658554,11.91474437713623
1.771062983297021e+18,-0.12025459855794907,0.7918822169303894,0.3477577865123749,10.913968086242676
1.7710629833469972e+18,-0.16920779645442963,0.35314473509788513,0.4734533727169037,11.086350440979004
1.77106298339702e+18,-0.22348199784755707,-0.24600422382354736,-1.1971008777618408,9.743204116821289
1.7710629834469806e+18,-0.15963000059127808,-0.760757565498352,-0.2346317619085312,9.496601104736328
1.771062983497026e+18,-0.1926202028989792,0.3561374843120575,-0.4447229504585266,10.138246536254883
1.7710629835469673e+18,-0.206454798579216,-0.21607670187950134,0.3998316824436188,9.275136947631836
1.7710629835974308e+18,-0.20219799876213074,-0.38965630531311035,0.19213467836380005,10.787673950195312
1.771062983647034e+18,-0.20858320593833923,0.578798234462738,0.2537853717803955,10.794258117675781
1.7710629836969833e+18,-0.17559300363063812,0.933738648891449,-0.395043283700943,10.67873764038086
1.771062983747053e+18,-0.18517079949378967,0.3734954595565796,0.6302735805511475,10.994174003601074
1.7710629837969756e+18,-0.24689440429210663,-1.0863690376281738,-1.2234370708465576,10.234015464782715
1.7710629838470234e+18,-0.16495099663734436,-0.8972270488739014,-0.26156651973724365,8.918999671936035
1.7710629838970266e+18,-0.14579540491104126,0.6877344250679016,0.023942016065120697,10.630853652954102
1.771062983947038e+18,-0.20858320593833923,0.9307458996772766,0.7003039717674255,9.160215377807617
1.7710629839970542e+18,-0.18197819590568542,-0.2190694510936737,1.1007342338562012,9.96825885772705
1.7710629840470707e+18,-0.2383808046579361,1.136048674583435,0.020350713282823563,9.817423820495605
1.771062984096971e+18,-0.20219799876213074,1.0552443265914917,-0.37409400939941406,11.145606994628906
1.771062984146967e+18,-0.16601519286632538,-0.29209259152412415,0.1867477297782898,11.407174110412598
1.7710629841972058e+18,-0.25327959656715393,-0.591367781162262,-1.0229226350784302,9.661800384521484
1.77106298424707e+18,-0.1681436002254486,-1.2006921768188477,-0.6272808313369751,9.815628051757812
1.7710629842971108e+18,-0.17878560721874237,0.7565677165985107,0.19033902883529663,9.285911560058594
1.7710629843470282e+18,-0.1543090045452118,0.3082534670829773,-0.18495208024978638,9.600749015808105
1.7710629843970993e+18,-0.13621759414672852,-0.7775169610977173,0.772130012512207,10.326789855957031
1.7710629844472397e+18,-0.1159977987408638,1.1139023303985596,-0.2579752206802368,10.090362548828125
1.7710629844969761e+18,-0.11812619864940643,0.5841851830482483,0.15143325924873352,10.143034934997559
1.771062984546959e+18,-0.07449399679899216,0.5746083855628967,1.489791989326477,9.46607494354248
1.7710629845970076e+18,-0.16601519286632538,1.1563993692398071,0.5165489912033081,10.431536674499512
1.7710629846471414e+18,-0.13941019773483276,0.5303156971931458,-0.06703764945268631,10.671555519104004
1.7710629846971026e+18,-0.06598039716482162,-0.3405751883983612,0.9666589498519897,9.799467086791992
1.7710629847472044e+18,-0.09790640324354172,-0.4866214990615845,-0.6218938827514648,9.285911560058594
1.7710629847969661e+18,-0.017027199268341064,0.04848258197307587,-0.46088382601737976,9.607333183288574
1.771062984847044e+18,0.07342980057001114,-0.3824737071990967,0.9522936940193176,9.41639518737793
1.771062984897102e+18,0.05746680125594139,0.23044191300868988,0.7499836683273315,10.655993461608887
1.7710629849469732e+18,-0.02766920067369938,-0.16160860657691956,-0.9534907937049866,9.759963035583496
1.7710629849970427e+18,0.050017401576042175,-0.3471592366695404,1.460463047027588,9.628880500793457
1.7710629850470326e+18,-0.025540800765156746,-0.08798690885305405,1.0845733880996704,10.706870079040527
1.7710629850970747e+18,-0.08939280360937119,-0.45908817648887634,-0.8601169586181641,9.502586364746094
1.7710629851470907e+18,-0.004256799817085266,0.4710591733455658,-0.5554547905921936,9.376891136169434
1.77106298519767e+18,0.025540800765156746,-0.2759317457675934,1.0971429347991943,9.481039047241211
1.77106298524696e+18,-0.02447660081088543,-0.6943184733390808,-0.6572083830833435,9.860519409179688
1.7710629852970644e+18,-0.03299019858241081,-0.30286651849746704,-0.8439561128616333,10.44470500946045
1.7710629853471073e+18,0.05746680125594139,-0.1280897855758667,1.1073182821273804,9.959280014038086
1.771062985397102e+18,-0.019155599176883698,0.4118026793003082,-0.6721721291542053,10.064624786376953
1.7710629854471101e+18,-0.08832859992980957,-1.161187767982483,-1.0199298858642578,9.7605619430542
1.7710629854971144e+18,0.07449399679899216,-0.22026655077934265,1.4586673974990845,9.732429504394531
1.7710629855470403e+18,-0.017027199268341064,0.7344213724136353,-0.22685061395168304,10.89301872253418
1.7710629855970455e+18,-0.029797600582242012,0.15682020783424377,-1.039083480834961,9.510367393493652
1.7710629856470976e+18,0.03937539830803871,0.13527239859104156,0.5991489887237549,10.517727851867676
1.7710629856971072e+18,-0.03086180053651333,0.3381809890270233,0.7787140607833862,10.920552253723145
1.7710629857469937e+18,0.0,1.0103530883789062,0.24600422382354736,9.563039779663086
1.771062985797031e+18,0.07236559689044952,0.7793126106262207,-0.8469488620758057,10.65359878540039
1.7710629858471557e+18,0.11067680269479752,0.14245499670505524,1.0019733905792236,10.126874923706055
1.7710629858970401e+18,0.11386939883232117,0.0652419924736023,0.2819172441959381,11.307814598083496
1.7710629859470566e+18,0.09577800333499908,-0.3064578175544739,0.0867898091673851,10.840346336364746
1.771062985997252e+18,0.18517079949378967,-0.6865373253822327,1.037886381149292,10.80323600769043
1.7710629860470339e+18,0.06278780102729797,0.5141547918319702,-0.10714052617549896,11.877036094665527
1.7710629860970455e+18,0.02766920067369938,0.8397662043571472,-0.2017114907503128,10.957662582397461
1.771062986147032e+18,0.09897059947252274,1.037886381149292,0.5781996846199036,9.835380554199219
1.7710629861969846e+18,0.038311198353767395,0.9074024558067322,0.4728548228740692,11.877634048461914
1.7710629862470577e+18,0.11067680269479752,1.499967336654663,0.42197805643081665,11.565191268920898
1.7710629862969907e+18,0.06810879707336426,-0.14604629576206207,0.4010287821292877,10.276512145996094
1.7710629863471014e+18,0.13621759414672852,-0.8708908557891846,0.7727285623550415,10.267534255981445
1.7710629863969605e+18,0.19155600666999817,-0.4644751250743866,1.0779893398284912,9.154230117797852
1.771062986447288e+18,0.05427420139312744,1.6226701736450195,0.14664484560489655,8.273163795471191
1.7710629864970708e+18,0.10109899938106537,0.4800374209880829,-0.9534907937049866,9.917980194091797
1.7710629865469783e+18,0.16388680040836334,0.3381809890270233,0.6051344871520996,8.845976829528809
1.7710629865970941e+18,0.14366699755191803,0.8224082589149475,0.595557689666748,10.617087364196777
1.7710629866470797e+18,0.07449399679899216,-0.24839842319488525,-0.4728548228740692,10.211270332336426
1.771062986697224e+18,0.10535579919815063,1.0630255937576294,-0.5351040959358215,10.178349494934082
1.7710629867470953e+18,0.14473119378089905,0.2609679698944092,1.1982979774475098,9.738415718078613
1.7710629867970834e+18,0.028733400627970695,0.2735375463962555,-0.6063315868377686,10.684124946594238
1.7710629868470715e+18,0.06598039716482162,1.0755951404571533,0.365115761756897,9.7605619430542
1.7710629868970194e+18,0.0649162009358406,-0.983418345451355,0.7074865698814392,8.85794734954834
1.771062986947109e+18,0.056402601301670074,-0.3645172119140625,0.17058686912059784,9.048885345458984
1.7710629869970399e+18,0.07555820047855377,0.424970805644989,-0.0077811554074287415,9.473855972290039
1.771062987047071e+18,0.12344720214605331,-0.2753331959247589,0.24001871049404144,9.662399291992188
1.771062987097166e+18,0.15324479341506958,-0.9678560495376587,-0.19931729137897491,10.867280960083008
1.7710629871471025e+18,0.17878560721874237,0.6703764796257019,0.6266822814941406,11.25334644317627
1.771062987197109e+18,0.15643739700317383,1.0785878896713257,0.5961562395095825,10.21007251739502
1.771062987246991e+18,0.21071159839630127,0.5734112858772278,-0.6434416770935059,10.639233589172363
1.7710629872970578e+18,0.23625239729881287,-0.15981295704841614,1.2312182188034058,9.470863342285156
1.771062987347077e+18,0.15963000059127808,-0.3932476341724396,0.21966800093650818,10.822988510131836
1.771062987397071e+18,0.11386939883232117,0.35733458399772644,0.5446808934211731,9.497797966003418
1.771062987446983e+18,0.21071159839630127,0.49140989780426025,0.37469255924224854,9.761758804321289
1.7710629874970342e+18,0.22773879766464233,-1.1617863178253174,-0.7541735172271729,9.74021053314209
1.7710629875471555e+18,0.20751899480819702,0.8930371999740601,-0.20470423996448517,11.674725532531738
1.7710629875971113e+18,0.1681436002254486,-0.7308300733566284,-0.019153613597154617,10.795454978942871
1.7710629876471058e+18,0.2256104052066803,-0.333991140127182,-0.9050082564353943,9.96825885772705
1.7710629876969812e+18,0.3160673975944519,-1.0085574388504028,1.4760253429412842,9.419387817382812
1.7710629877470218e+18,0.3096821904182434,-0.4578910768032074,1.7854758501052856,10.071208953857422
1.7710629877970273e+18,0.2000696063041687,1.1162965297698975,0.08918400853872299,10.852317810058594
1.771062987847106e+18,0.2894623875617981,0.4279635548591614,0.5566518902778625,9.93593692779541
1.7710629878970286e+18,0.2639215886592865,0.08319851011037827,-1.1982979774475098,9.132083892822266
1.7710629879472271e+18,0.3724699914455414,-1.1953052282333374,1.2443863153457642,9.473257064819336
1.771062987997015e+18,0.22454619407653809,0.0933738648891449,-0.4794388711452484,10.894814491271973
1.771062988047062e+18,0.1734645962715149,0.739209771156311,0.16879121959209442,9.443928718566895
1.7710629880971046e+18,0.23305979371070862,1.0630255937576294,0.10115502029657364,10.211270332336426
1.7710629881470328e+18,0.26711419224739075,-0.6129156351089478,1.0755951404571533,8.7083101272583
1.7710629881970143e+18,0.3096821904182434,0.0975637212395668,0.9906009435653687,9.280524253845215
1.77106298824697e+18,0.17027199268341064,-0.5704185366630554,-0.6248866319656372,9.442730903625488
1.771062988297102e+18,0.31393900513648987,1.3970166444778442,-0.32680851221084595,10.493186950683594
1.7710629883470339e+18,0.29478341341018677,0.5512649416923523,-0.14185644686222076,9.355342864990234
1.7710629883969608e+18,0.23305979371070862,0.24420857429504395,0.711077868938446,10.207079887390137
1.7710629884471388e+18,0.3011685907840729,0.9133879542350769,0.295683890581131,10.841543197631836
1.7710629884969948e+18,0.22986720502376556,-0.4752490222454071,-0.5997475385665894,9.876680374145508
1.7710629885469914e+18,0.32458099722862244,0.8182184100151062,0.43095630407333374,10.46086597442627
1.7710629885971418e+18,0.3277736008167267,-0.23942016065120697,1.1994950771331787,10.596736907958984
1.7710629886471032e+18,0.20858320593833923,0.6368576288223267,-0.4124012291431427,12.373832702636719
1.7710629886969833e+18,0.3011685907840729,-0.05746084079146385,0.4620809257030487,9.677961349487305
1.771062988747032e+18,0.20539060235023499,-0.993593692779541,-0.558447539806366,9.728240013122559
1.7710629887971361e+18,0.31181061267852783,-0.5225344896316528,1.410783290863037,10.98040771484375
1.7710629888470008e+18,0.21603259444236755,1.1941081285476685,0.40940847992897034,10.831966400146484
1.7710629888971041e+18,0.20539060235023499,0.3423708379268646,-0.5811924338340759,11.358691215515137
1.7710629889470528e+18,0.25540798902511597,0.25438392162323,0.0077811554074287415,11.024700164794922
1.7710629889969615e+18,0.33096620440483093,-1.9470845460891724,0.05925649031996727,9.495404243469238
1.7710629890471828e+18,0.23625239729881287,0.5692214369773865,0.43335050344467163,11.291054725646973
1.7710629890971139e+18,0.34480080008506775,-0.243011474609375,1.0983400344848633,9.435548782348633
1.7710629891470528e+18,0.27349939942359924,0.010175356641411781,-0.6171054840087891,10.214262962341309
1.7710629891971983e+18,0.3533143997192383,0.5662286877632141,0.12509703636169434,9.692326545715332
1.7710629892471073e+18,0.24263760447502136,1.2419921159744263,0.1909375786781311,9.973645210266113
1.771062989297056e+18,0.21603259444236755,0.9750386476516724,0.5183446407318115,10.302847862243652
1.7710629893471485e+18,0.12131880223751068,-0.017956512048840523,0.5823895335197449,9.211091995239258
1.771062989397136e+18,0.14047439396381378,-1.1300631761550903,-0.3932476341724396,10.663175582885742
1.7710629894471089e+18,0.1798498034477234,0.6428431272506714,1.2623428106307983,10.34714126586914
1.7710629894970358e+18,0.08087919652462006,0.25917232036590576,-0.013168109580874443,11.173739433288574
1.7710629895471022e+18,0.0776866003870964,-0.28550854325294495,-0.9463081955909729,10.48061752319336
1.7710629895971466e+18,0.16601519286632538,0.9050082564353943,0.3363853394985199,9.941324234008789
1.7710629896471647e+18,0.07023719698190689,-1.1821370124816895,1.2120646238327026,9.79647445678711
1.7710629896970842e+18,0.02128399908542633,-0.8265981078147888,0.4225766062736511,9.017760276794434
1.7710629897469806e+18,0.09258539974689484,0.9026139974594116,0.005985504016280174,9.048286437988281
1.7710629897970322e+18,0.12770399451255798,-0.055665187537670135,-0.22325929999351501,8.974664688110352
1.7710629898470766e+18,0.17878560721874237,-0.7835025191307068,-0.30466216802597046,10.431536674499512
1.7710629898970386e+18,0.1223829984664917,0.8894459009170532,0.2579752206802368,10.794857025146484
1.7710629899469852e+18,0.07449399679899216,-0.9085995554924011,-0.7332242727279663,10.132261276245117
1.771062989997077e+18,0.029797600582242012,0.39863458275794983,-1.1767500638961792,10.00955867767334
1.771062990047032e+18,0.07875079661607742,0.4770446717739105,0.7416039705276489,11.021707534790039
1.7710629900969897e+18,-0.1298324018716812,-0.39564183354377747,-0.16220715641975403,10.007762908935547
1.771062990147022e+18,-0.03618279844522476,-0.6643909811973572,-1.0235211849212646,9.169194221496582
1.7710629901969876e+18,0.06917300075292587,0.20889408886432648,1.5460556745529175,10.096348762512207
1.771062990247112e+18,-0.06385199725627899,1.026513934135437,0.193331778049469,10.432733535766602
1.7710629902971013e+18,-0.04256799817085266,0.05147533491253853,0.3537432849407196,11.249754905700684
1.7710629903471096e+18,0.04576060175895691,-0.608127236366272,0.6931213736534119,11.45146656036377
1.7710629903969756e+18,-0.026605000719428062,0.45429977774620056,0.3603273630142212,10.234015464782715
1.7710629904473132e+18,-0.08513599634170532,0.39624038338661194,0.44592005014419556,9.367912292480469
1.771062990497114e+18,0.0649162009358406,-0.15083470940589905,0.6129156351089478,11.499350547790527
1.7710629905469888e+18,-0.020219799131155014,1.1695674657821655,0.2064998894929886,10.474632263183594
1.7710629905971028e+18,-0.046824801713228226,0.6985083222389221,0.1843535304069519,10.133458137512207
1.771062990647059e+18,0.03299019858241081,0.40222588181495667,-0.8337807059288025,9.990405082702637
1.771062990697115e+18,0.02128399908542633,-0.020350713282823563,0.48961424827575684,9.556455612182617
1.7710629907471457e+18,-0.04256799817085266,0.6302735805511475,0.30526071786880493,11.241374969482422
1.7710629907971338e+18,-0.0840718001127243,0.07242459803819656,-0.8559271097183228,9.227252960205078
1.7710629908471485e+18,0.026605000719428062,0.42676645517349243,0.33937808871269226,11.034875869750977
1.771062990897013e+18,0.06278780102729797,0.6045359373092651,0.47165772318840027,10.26274585723877
1.771062990947104e+18,0.0,-0.6518213748931885,-0.7930793166160583,9.427168846130371
1.7710629909970952e+18,0.1096125990152359,-0.20889408886432648,1.4137760400772095,8.736441612243652
1.7710629910470356e+18,-0.04788900166749954,0.7852981686592102,0.043095629662275314,9.880271911621094
1.7710629910970442e+18,-0.03618279844522476,-0.9750386476516724,-0.7673416137695312,10.44051456451416
1.7710629911475292e+18,0.04469640180468559,0.2693476974964142,1.3335703611373901,9.568427085876465
1.7710629911969695e+18,-0.0904569998383522,1.0348936319351196,0.42676645517349243,9.682151794433594
1.7710629912470623e+18,-0.09790640324354172,0.40940847992897034,-0.20949263870716095,10.85590934753418
1.7710629912970844e+18,0.04256799817085266,-0.5297170877456665,0.4321534037590027,11.508328437805176
1.7710629913470577e+18,-0.004256799817085266,-0.005386953707784414,0.02753331884741783,11.237784385681152
1.771062991397084e+18,-0.06598039716482162,0.7493851184844971,0.4189852774143219,9.889249801635742
1.7710629914469834e+18,-0.03937539830803871,-0.11252747476100922,-1.0211269855499268,9.211091995239258
1.7710629914970926e+18,0.025540800765156746,0.8403647541999817,0.4405331015586853,11.563395500183105
1.7710629915470397e+18,0.023412400856614113,1.3126211166381836,0.22505494952201843,10.667365074157715
1.7710629915974666e+18,-0.029797600582242012,-0.536899745464325,-1.3491326570510864,9.728838920593262
1.7710629916470446e+18,0.08300759643316269,0.5931634902954102,0.6135141849517822,11.04983901977539
1.771062991697021e+18,0.028733400627970695,0.8990226984024048,0.3477577865123749,10.752958297729492
1.7710629917470333e+18,-0.04895320162177086,-0.6105214357376099,-1.1899182796478271,9.435548782348633
1.7710629917969715e+18,-0.04256799817085266,-0.023942016065120697,-1.2312182188034058,10.914566993713379
1.7710629918474609e+18,-0.01383460033684969,0.8607155084609985,0.6332663297653198,10.464456558227539
1.771062991897059e+18,-0.11919040232896805,-0.7739256620407104,-0.7781155109405518,10.04188060760498
1.7710629919472118e+18,0.05214580148458481,-0.5883750319480896,0.9151836037635803,10.503362655639648
1.7710629919971346e+18,0.03937539830803871,0.4596867263317108,0.8415618538856506,9.788094520568848
1.7710629920471337e+18,-0.020219799131155014,0.618302583694458,-0.15322890877723694,9.469666481018066
1.7710629920970957e+18,0.08300759643316269,-0.7266402244567871,0.7996633648872375,10.197503089904785
1.7710629921470797e+18,0.10429160296916962,-0.07781155407428741,1.5263035297393799,9.285911560058594
1.7710629921970755e+18,-0.023412400856614113,1.1306617259979248,0.2603694200515747,10.269329071044922
1.7710629922470487e+18,0.009577799588441849,0.18555063009262085,0.02693476900458336,10.47702693939209
1.771062992296971e+18,0.10535579919815063,0.06584054231643677,1.0779893398284912,10.109516143798828
1.7710629923470423e+18,0.004256799817085266,1.2419921159744263,0.2902969419956207,9.819818496704102
1.7710629923971945e+18,0.0,0.15562310814857483,-1.0462660789489746,9.065046310424805
1.7710629924471677e+18,0.028733400627970695,0.1586158573627472,-0.07122749835252762,11.224017143249512
1.7710629924969994e+18,0.005320999771356583,0.25917232036590576,0.19931729137897491,10.701482772827148
1.7710629925469714e+18,-0.0840718001127243,-0.5111620426177979,-1.5083470344543457,10.507552146911621
1.7710629925969907e+18,0.011706200428307056,-0.07003039866685867,-0.6889315247535706,9.596558570861816
1.7710629926472195e+18,0.01809139922261238,1.0785878896713257,0.7589619159698486,10.724227905273438
1.771062992696973e+18,0.023412400856614113,0.8451532125473022,0.04848258197307587,10.608109474182129
1.7710629927470385e+18,0.04043959826231003,0.6853402256965637,-0.618302583694458,9.2841157913208
1.7710629927970788e+18,0.053210001438856125,0.5117605924606323,0.20051439106464386,11.171943664550781
1.7710629928471375e+18,-0.06065940111875534,1.270722508430481,-0.0347159244120121,10.254365921020508
1.7710629928970865e+18,-0.09258539974689484,-0.36152446269989014,-0.11252747476100922,9.48882007598877
1.7710629929469873e+18,0.02128399908542633,-0.08738835901021957,1.2449848651885986,10.573392868041992
1.7710629929970734e+18,-0.0776866003870964,1.2072762250900269,0.2926911413669586,9.788094520568848
1.7710629930469908e+18,-0.11067680269479752,0.9169792532920837,0.4495113492012024,9.97065258026123
1.7710629930971023e+18,0.022348200902342796,-0.5853822827339172,-0.4100070297718048,10.545859336853027
1.7710629931470382e+18,0.038311198353767395,0.27892449498176575,0.5315127968788147,10.700883865356445
1.7710629931975455e+18,-0.005320999771356583,0.7499836683273315,-0.15023615956306458,10.144830703735352
1.771062993247048e+18,0.015962999314069748,0.2609679698944092,-0.5680243372917175,9.885658264160156
1.7710629932969702e+18,0.04256799817085266,0.4016273319721222,0.5165489912033081,9.96825885772705
1.7710629933470948e+18,-0.03937539830803871,-0.6087257862091064,-0.6530184745788574,10.552443504333496
1.7710629933970488e+18,0.0,0.0933738648891449,-1.3874398469924927,9.269750595092773
1.7710629934470794e+18,0.08939280360937119,0.5105634927749634,0.750582218170166,10.296862602233887
1.7710629934970386e+18,-0.059595201164484024,0.06763619929552078,0.4076128304004669,9.61451530456543
1.7710629935471053e+18,-0.04895320162177086,-1.0205284357070923,-1.2282254695892334,10.160393714904785
1.7710629935969684e+18,0.043632201850414276,-0.6500257253646851,1.0229226350784302,10.429141998291016
1.7710629936471836e+18,-0.10748419910669327,0.497395396232605,0.10055647045373917,9.388861656188965
1.7710629936969664e+18,-0.08087919652462006,0.35733458399772644,0.7751227617263794,9.068038940429688
1.7710629937470564e+18,0.09364960342645645,0.07122749835252762,0.8846575021743774,10.644021987915039
1.7710629937969828e+18,0.02447660081088543,0.7086836695671082,-0.17238251864910126,10.103530883789062
1.7710629938471493e+18,-0.017027199268341064,1.1504138708114624,0.29388824105262756,9.814431190490723
1.7710629938971118e+18,0.05853100121021271,0.48602294921875,-0.09457096457481384,10.292673110961914
1.7710629939469855e+18,0.029797600582242012,0.3058592677116394,0.11971008032560349,10.887632369995117
1.7710629939970383e+18,-0.05214580148458481,0.7601590156555176,0.2735375463962555,10.983400344848633
1.7710629940470666e+18,0.0,0.6518213748931885,-0.851138710975647,10.497377395629883
1.7710629940970363e+18,-0.005320999771356583,0.9516951441764832,0.6763619780540466,10.597334861755371
1.7710629941470477e+18,-0.017027199268341064,-0.06404489278793335,0.2861070930957794,11.186906814575195
1.7710629941969736e+18,-0.038311198353767395,-0.2663549482822418,-1.358709454536438,9.914987564086914
1.7710629942469576e+18,0.050017401576042175,0.18495208024978638,1.2258312702178955,10.33098030090332
1.7710629942970289e+18,-0.009577799588441849,0.6278793811798096,0.46148237586021423,10.080785751342773
1.7710629943470308e+18,-0.06810879707336426,-0.7266402244567871,-0.9666589498519897,10.335768699645996
1.771062994397016e+18,0.056402601301670074,0.12988543510437012,1.4993687868118286,9.634267807006836
1.7710629944470226e+18,0.03618279844522476,0.7164648175239563,0.606930136680603,9.733028411865234
1.7710629944970273e+18,-0.014898800291121006,-0.46148237586021423,-0.6141127347946167,11.637616157531738
1.7710629945470298e+18,0.09364960342645645,-0.3645172119140625,1.2665326595306396,9.916783332824707
1.7710629945970322e+18,0.09364960342645645,0.37229835987091064,1.3401544094085693,9.487622261047363
1.7710629946470533e+18,-0.05746680125594139,0.5392939448356628,0.3238157629966736,9.805453300476074
1.7710629946970314e+18,0.059595201164484024,-0.6141127347946167,0.7858967185020447,10.712855339050293
1.7710629947471398e+18,0.04788900166749954,-0.05985504016280174,1.370081901550293,9.709086418151855
1.771062994797236e+18,-0.1223829984664917,0.7715314626693726,0.3645172119140625,10.805031776428223
1.7710629948470282e+18,0.03937539830803871,0.33279404044151306,-0.8361749053001404,10.371681213378906
1.7710629948970808e+18,0.11919040232896805,-0.42616790533065796,0.7463923692703247,11.089343070983887
1.7710629949470228e+18,0.05108160153031349,0.25498247146606445,0.0586579404771328,10.790666580200195
1.771062994996975e+18,0.023412400856614113,-0.05686229094862938,-1.0881646871566772,9.2033109664917
1.7710629950472044e+18,0.05533840134739876,0.12928688526153564,-0.07062894850969315,10.189722061157227
1.7710629950969623e+18,0.07449399679899216,0.7547720670700073,0.46327802538871765,10.49677848815918
1.7710629951470963e+18,-0.02447660081088543,-0.243011474609375,-1.015141487121582,9.422979354858398
1.771062995197095e+18,0.02447660081088543,-0.10354921966791153,-0.6805518269538879,9.789292335510254
1.7710629952470753e+18,0.02128399908542633,0.24899697303771973,0.48722004890441895,11.085752487182617
1.7710629952969536e+18,-0.050017401576042175,-0.9457096457481384,-0.0867898091673851,9.77013874053955
1.771062995346991e+18,-0.046824801713228226,-0.3315969407558441,-1.6041151285171509,10.032901763916016
1.7710629953970929e+18,0.0,-0.05386953800916672,1.106719732284546,10.383652687072754
1.7710629954470513e+18,-0.08726440370082855,0.9283517003059387,0.1711854189634323,9.014169692993164
1.7710629954971018e+18,-0.0713014006614685,-0.49559974670410156,-0.8337807059288025,10.49677848815918
1.7710629955471012e+18,0.12131880223751068,0.10594342648983002,1.3042412996292114,9.351153373718262
1.7710629955970944e+18,-0.01383460033684969,0.6548141837120056,0.3860650062561035,9.822212219238281
1.7710629956470682e+18,-0.02128399908542633,-0.4818330705165863,-0.08918400853872299,10.04846477508545
1.7710629956969987e+18,0.12344720214605331,-0.718859076499939,1.0965443849563599,10.594342231750488
1.7710629957470917e+18,-0.026605000719428062,1.40180504322052,0.6997054219245911,10.477624893188477
1.7710629957971354e+18,-0.0776866003870964,0.7583633661270142,-0.05746084079146385,9.921571731567383
1.7710629958469527e+18,0.043632201850414276,-0.2849099934101105,0.38546645641326904,11.413159370422363
1.7710629958970527e+18,0.019155599176883698,0.33039984107017517,0.3621230125427246,10.641029357910156
1.7710629959470922e+18,-0.04469640180468559,0.45010989904403687,0.24001871049404144,9.59835433959961
1.7710629959971044e+18,0.04043959826231003,-0.49978959560394287,-0.9026139974594116,9.43375301361084
1.771062996047205e+18,0.13089659810066223,0.9504980444908142,0.5746083855628967,10.660781860351562
1.771062996096961e+18,0.01809139922261238,-0.34416648745536804,0.4225766062736511,10.817601203918457
1.7710629961470216e+18,-0.028733400627970695,-1.3479355573654175,-1.2892775535583496,10.15560531616211
1.7710629961970962e+18,0.1287682056427002,-0.4040215313434601,1.2503718137741089,10.428544044494629
1.771062996247105e+18,0.0713014006614685,0.3818751573562622,0.6548141837120056,10.7697172164917
1.771062996297031e+18,-0.023412400856614113,-0.6847416758537292,-1.006163239479065,10.800243377685547
1.7710629963470833e+18,0.0713014006614685,-0.33518823981285095,1.3862427473068237,9.158419609069824
1.7710629963970936e+18,0.06385199725627899,0.0065840547904372215,1.1839326620101929,9.07342529296875
1.7710629964471158e+18,-0.10109899938106537,0.18914192914962769,-0.07302314788103104,9.749787330627441
1.771062996497026e+18,0.0,-0.6033388376235962,0.5446808934211731,11.346719741821289
1.7710629965471145e+18,-0.020219799131155014,0.518943190574646,0.28072014451026917,10.982203483581543
1.7710629965970204e+18,0.02128399908542633,0.9929951429367065,0.016759412363171577,10.267534255981445
1.7710629966470822e+18,-0.010641999542713165,0.0035913025494664907,-0.9068039059638977,9.406219482421875
1.7710629966969774e+18,0.09471379965543747,-0.21009118854999542,0.06404489278793335,10.933720588684082
1.7710629967471055e+18,0.1096125990152359,0.25677812099456787,0.4638765752315521,10.154407501220703
1.7710629967971085e+18,-0.025540800765156746,-0.04189852997660637,-0.8020575642585754,8.9249849319458
1.7710629968470543e+18,0.005320999771356583,0.011971008032560349,-0.25737667083740234,10.029311180114746
1.7710629968970322e+18,0.04043959826231003,0.7852981686592102,0.5740098357200623,10.178948402404785
1.771062996946982e+18,-0.10535579919815063,-0.606930136680603,-1.2186486721038818,10.124480247497559
1.771062996996954e+18,0.004256799817085266,0.6224924325942993,-0.834379255771637,9.611522674560547
1.7710629970470907e+18,0.059595201164484024,0.37469255924224854,0.689530074596405,10.378864288330078
1.7710629970970865e+18,-0.07236559689044952,-0.8774749040603638,-1.0187327861785889,10.559626579284668
1.771062997147011e+18,-0.07981500029563904,0.17657236754894257,-1.258152961730957,9.837176322937012
1.7710629971979517e+18,0.05853100121021271,0.34835633635520935,0.6530184745788574,10.669759750366211
1.7710629972469563e+18,-0.06172360107302666,0.03651157394051552,-0.31184476613998413,9.989208221435547
1.7710629972970284e+18,-0.04788900166749954,-0.4572925269603729,-1.4472949504852295,10.102932929992676
1.771062997347039e+18,0.1223829984664917,-0.0293289702385664,0.8786720037460327,9.622296333312988
1.7710629973969833e+18,-0.014898800291121006,0.6254851818084717,0.13527239859104156,9.674968719482422
1.771062997447107e+18,-0.035118598490953445,-0.9373299479484558,-1.0229226350784302,9.462483406066895
1.7710629974970918e+18,0.08300759643316269,-0.656609833240509,1.2575544118881226,10.159794807434082
1.7710629975472097e+18,-0.08194340020418167,1.016338586807251,0.5829880833625793,9.690530776977539
1.7710629975969677e+18,-0.0840718001127243,1.0271124839782715,0.046088382601737976,9.03990650177002
1.7710629976470753e+18,0.020219799131155014,0.19871874153614044,1.0630255937576294,10.487201690673828
1.7710629976971044e+18,-0.031925998628139496,0.48901569843292236,0.3758896589279175,10.044873237609863
1.7710629977469937e+18,-0.035118598490953445,0.5506663918495178,0.23762451112270355,10.288482666015625
1.7710629977971013e+18,0.01809139922261238,0.4926069974899292,0.0,10.245985984802246
1.7710629978470536e+18,0.059595201164484024,-0.6602011322975159,0.7439981698989868,9.652822494506836
1.7710629978969546e+18,0.0,1.1019313335418701,0.35314473509788513,9.913191795349121
1.771062997946972e+18,0.02766920067369938,0.9277531504631042,-0.518943190574646,10.315418243408203
1.7710629979971796e+18,0.035118598490953445,0.166995570063591,0.25258827209472656,10.186729431152344
1.7710629980469668e+18,0.02766920067369938,0.8858546018600464,0.3519476354122162,10.681132316589355
1.7710629980970022e+18,-0.014898800291121006,0.3262099623680115,-1.2982558012008667,9.438541412353516
1.7710629981470863e+18,0.10109899938106537,-0.01975216343998909,0.8032546639442444,10.067618370056152
1.7710629981970376e+18,0.031925998628139496,0.4537012279033661,0.619499683380127,10.923544883728027
1.771062998247224e+18,-0.11174099892377853,-0.7912836670875549,-0.6865373253822327,9.186552047729492
1.7710629982971156e+18,0.04576060175895691,0.3711012601852417,1.1109095811843872,10.161590576171875
1.7710629983472425e+18,0.0,0.3968389332294464,0.3411737382411957,10.936713218688965
1.7710629983969713e+18,-0.020219799131155014,0.44592005014419556,0.5494692921638489,9.670180320739746
1.771062998447091e+18,0.1159977987408638,-0.05985504016280174,0.9068039059638977,10.69609546661377
1.7710629984971003e+18,0.13621759414672852,-0.0933738648891449,0.9235633015632629,10.273519515991211
1.7710629985470193e+18,0.005320999771356583,0.8134300112724304,0.8966284990310669,8.725069046020508
1.77106299859718e+18,0.05214580148458481,0.5392939448356628,0.1975216418504715,11.670536041259766
1.771062998647072e+18,0.04895320162177086,-0.6332663297653198,1.039083480834961,10.110713958740234
1.7710629986977503e+18,-0.0649162009358406,0.5674257874488831,0.23163901269435883,10.788272857666016
1.7710629987471852e+18,-0.03618279844522476,0.20889408886432648,-1.2246341705322266,8.993220329284668
1.7710629987980657e+18,0.023412400856614113,0.27413609623908997,0.11791443079710007,10.970830917358398
1.771062998847201e+18,0.029797600582242012,0.3321954905986786,0.18076223134994507,10.506954193115234
1.7710629988969805e+18,-0.04469640180468559,0.05027823522686958,-0.8900444507598877,10.375871658325195
1.771062998947114e+18,-0.06065940111875534,0.16519992053508759,-0.8445546627044678,9.800065994262695
1.7710629989970353e+18,0.059595201164484024,0.7691372632980347,0.6697779297828674,10.199298858642578
1.7710629990471972e+18,-0.0713014006614685,-0.07841010391712189,-0.3645172119140625,9.324816703796387
1.7710629990970322e+18,-0.009577799588441849,0.32261866331100464,-0.8978255987167358,9.003395080566406
1.771062999146954e+18,0.09152120351791382,0.834379255771637,0.22864626348018646,10.667365074157715
1.7710629991969746e+18,-0.025540800765156746,-0.03411737456917763,-0.040701426565647125,9.79408073425293
1.7710629992471007e+18,-0.02766920067369938,-0.772130012512207,-1.161187767982483,10.616488456726074
1.771062999297033e+18,0.08939280360937119,0.1951274424791336,1.215057373046875,9.800065994262695
1.7710629993470638e+18,-0.06172360107302666,1.070208191871643,0.23942016065120697,9.41100788116455
1.7710629993970452e+18,-0.09790640324354172,0.5297170877456665,0.37469255924224854,9.141061782836914
1.7710629994469903e+18,0.07555820047855377,-0.6835445761680603,0.8882488012313843,10.754155158996582
1.7710629994970985e+18,-0.035118598490953445,0.05446808785200119,-0.19153612852096558,10.518326759338379
1.7710629995471427e+18,0.01383460033684969,0.884058952331543,0.3705027103424072,10.19151782989502
1.7710629995971039e+18,0.08513599634170532,0.3794809579849243,-0.38307225704193115,10.208277702331543
1.771062999647098e+18,0.08194340020418167,0.21787235140800476,0.4339490532875061,10.144232749938965
1.7710629996969887e+18,-0.008513599634170532,0.871489405632019,0.07362169772386551,9.931148529052734
1.7710629997472008e+18,-0.0063852001912891865,0.618302583694458,-0.6979097723960876,10.419565200805664
1.7710629997969964e+18,0.04576060175895691,0.6033388376235962,0.4513069987297058,9.96945571899414
1.771062999847192e+18,-0.03937539830803871,-0.4554968774318695,-0.7864952683448792,9.726444244384766
1.7710629998969736e+18,-0.07662239670753479,-0.6464344263076782,-1.2976572513580322,10.070611000061035
1.7710629999472776e+18,0.0713014006614685,0.043095629662275314,0.9241618514060974,9.822212219238281
1.7710629999971395e+18,-0.06385199725627899,0.6991068720817566,0.2256534993648529,9.81143856048584
1.7710630000470756e+18,-0.08087919652462006,-0.32501286268234253,-0.16879121959209442,9.407417297363281
1.7710630000970314e+18,0.02766920067369938,-0.4207809269428253,0.9648632407188416,10.462660789489746
1.7710630001470682e+18,0.0,0.9804255962371826,0.1107318252325058,10.032901763916016
1.7710630001970893e+18,-0.025540800765156746,0.5309142470359802,0.43335050344467163,9.704895973205566
1.771063000246972e+18,0.11812619864940643,-0.1346738487482071,0.4602852761745453,11.116876602172852
1.7710630002969464e+18,0.06065940111875534,0.4471171498298645,0.3645172119140625,9.908403396606445
1.771063000347093e+18,-0.008513599634170532,1.1115081310272217,0.5398924946784973,10.466851234436035
1.7710630003970307e+18,0.005320999771356583,0.17298106849193573,-0.25318682193756104,11.315595626831055
1.77106300044708e+18,0.041503798216581345,-0.5135562419891357,1.43532395362854,9.661202430725098
1.7710630004969912e+18,-0.05108160153031349,1.060032844543457,0.1999158412218094,10.201693534851074
1.771063000546968e+18,-0.015962999314069748,0.5069721937179565,-1.2713210582733154,9.735422134399414
1.7710630005970547e+18,0.004256799817085266,0.9798270463943481,0.3447650372982025,10.391433715820312
1.7710630006469957e+18,0.04895320162177086,0.6584054827690125,0.7751227617263794,10.235810279846191
1.771063000697056e+18,-0.043632201850414276,-1.1653776168823242,-1.4640543460845947,9.380481719970703
1.771063000747238e+18,-0.04469640180468559,-0.590170681476593,-1.1366472244262695,10.111311912536621
1.7710630007970652e+18,0.050017401576042175,0.7260416746139526,0.8104372620582581,9.923965454101562
1.7710630008472154e+18,-0.07555820047855377,-1.1091139316558838,-0.9349357485771179,10.399813652038574
1.7710630008969725e+18,0.08832859992980957,0.4100070297718048,1.3623007535934448,9.623493194580078
1.771063000946983e+18,0.06065940111875534,0.22026655077934265,0.4519055485725403,10.675745010375977
1.7710630009970847e+18,-0.06278780102729797,-0.4100070297718048,0.0035913025494664907,9.739013671875
1.7710630010470886e+18,0.06065940111875534,-0.4950011968612671,0.8325836062431335,10.860098838806152
1.7710630010971786e+18,0.028733400627970695,-0.19452887773513794,1.148618221282959,10.502165794372559
1.77106300114704e+18,-0.08513599634170532,0.7673416137695312,0.5434837937355042,10.11550235748291
1.7710630011970962e+18,-0.07981500029563904,-0.47644612193107605,-0.71766197681427,10.468048095703125
1.7710630012470904e+18,0.038311198353767395,-0.595557689666748,1.0905588865280151,10.815207481384277
1.771063001297007e+18,0.01383460033684969,0.9917980432510376,0.18315643072128296,10.491392135620117
1.771063001347078e+18,0.03724699839949608,0.5650315880775452,-1.1546037197113037,9.75517463684082
1.7710630013969723e+18,0.1159977987408638,-0.3711012601852417,0.3262099623680115,10.927136421203613
1.7710630014470264e+18,0.07662239670753479,0.4537012279033661,0.4620809257030487,10.527304649353027
1.7710630014970985e+18,-0.02128399908542633,-0.014963760040700436,-0.9056068062782288,9.126696586608887
1.7710630015475607e+18,-0.01383460033684969,0.1604115068912506,-0.3016694188117981,10.427347183227539
1.7710630015970335e+18,0.03618279844522476,0.2759317457675934,0.3645172119140625,11.155183792114258
1.7710630016469996e+18,-0.015962999314069748,0.8565256595611572,0.023343466222286224,10.670358657836914
1.7710630016969613e+18,-0.025540800765156746,0.26336216926574707,-1.1097124814987183,9.712677955627441
1.771063001747031e+18,0.07875079661607742,0.5740098357200623,0.3734954595565796,10.70986270904541
1.7710630017971126e+18,0.043632201850414276,0.12988543510437012,-0.0293289702385664,10.69370174407959
1.7710630018470492e+18,-0.046824801713228226,-0.8481459617614746,-0.9253589510917664,10.425551414489746
1.7710630018970353e+18,0.08620020002126694,0.19213467836380005,0.9648632407188416,10.042478561401367
1.7710630019470523e+18,-0.029797600582242012,0.5740098357200623,0.884058952331543,9.191340446472168
1.7710630019974607e+18,-0.03299019858241081,-0.6925228238105774,-0.9636661410331726,10.022128105163574
1.7710630020471086e+18,0.11493360251188278,0.3010708689689636,1.7483657598495483,9.340977668762207
1.771063002097039e+18,0.08513599634170532,0.13587094843387604,0.5722141861915588,10.432733535766602
1.7710630021471043e+18,-0.04788900166749954,-0.943913996219635,-1.0672154426574707,10.782885551452637
1.7710630021969777e+18,-0.06598039716482162,-0.18614917993545532,-1.170166015625,9.227252960205078
1.7710630022470054e+18,0.02447660081088543,0.043095629662275314,1.136048674583435,9.18056583404541
1.7710630022970765e+18,-0.06917300075292587,0.4710591733455658,0.712274968624115,9.320028305053711
1.7710630023471148e+18,-0.07555820047855377,-0.39564183354377747,-0.8188169598579407,10.353126525878906
1.771063002396971e+18,0.06917300075292587,0.1256955862045288,1.1324573755264282,9.6803560256958
1.7710630024472243e+18,0.026605000719428062,0.7439981698989868,0.5165489912033081,10.019135475158691
1.7710630024972155e+18,-0.03724699839949608,0.22266075015068054,-0.3758896589279175,10.367491722106934
1.7710630025469793e+18,0.12557560205459595,-0.7691372632980347,1.1569979190826416,10.555436134338379
1.7710630025972506e+18,0.0,1.050455927848816,0.4866214990615845,10.697891235351562
1.771063002647087e+18,-0.020219799131155014,1.0516530275344849,-0.595557689666748,9.964667320251465
1.7710630026971082e+18,0.08726440370082855,-0.49559974670410156,0.35314473509788513,10.740986824035645
1.7710630027470144e+18,0.022348200902342796,0.5841851830482483,0.07122749835252762,10.718242645263672
1.77106300279726e+18,-0.04256799817085266,-0.02454056777060032,-1.1635819673538208,9.972448348999023
1.7710630028469688e+18,-0.004256799817085266,0.6721721291542053,-0.43993455171585083,9.70010757446289
1.7710630028970693e+18,0.05214580148458481,0.9870096445083618,0.629675030708313,10.331578254699707
1.7710630029472315e+18,-0.07981500029563904,-0.5051765441894531,-0.5159504413604736,10.296862602233887
1.771063002997172e+18,-0.05214580148458481,-0.5524620413780212,-0.9026139974594116,9.767744064331055
1.7710630030470986e+18,0.08300759643316269,0.8415618538856506,0.8696937561035156,10.224437713623047
1.7710630030970634e+18,-0.011706200428307056,-0.05925649031996727,0.33279404044151306,9.289502143859863
1.771063003147033e+18,-0.014898800291121006,-0.6177040338516235,-0.8182184100151062,9.739612579345703
1.7710630031971103e+18,0.12663979828357697,-0.7793126106262207,1.4167687892913818,8.853757858276367
1.7710630032469793e+18,-0.035118598490953445,1.4646528959274292,0.42676645517349243,9.748590469360352
1.7710630032974702e+18,-0.07875079661607742,-0.2059013396501541,-0.45070844888687134,9.606135368347168
1.771063003347075e+18,0.02766920067369938,-0.49140989780426025,0.7823054194450378,11.486781120300293
1.7710630033970214e+18,-0.046824801713228226,0.8864531517028809,0.20350714027881622,9.612719535827637
1.771063003447063e+18,-0.07023719698190689,0.8852560520172119,0.2669534981250763,10.121487617492676
1.7710630034972047e+18,0.009577799588441849,-0.18555063009262085,-0.19812019169330597,10.600926399230957
1.771063003546975e+18,0.03405439853668213,0.3968389332294464,0.45908817648887634,10.051457405090332
1.7710630035970317e+18,0.0063852001912891865,0.9457096457481384,0.33698388934135437,10.012551307678223
1.7710630036471017e+18,-0.004256799817085266,0.3968389332294464,-0.9265560507774353,10.413579940795898
1.771063003696983e+18,0.10535579919815063,0.30047231912612915,0.4602852761745453,10.867280960083008
1.7710630037473766e+18,0.01809139922261238,0.4429273009300232,0.5237315893173218,10.445901870727539
1.7710630037970693e+18,-0.02128399908542633,0.050876785069704056,-0.9026139974594116,9.288904190063477
1.771063003847572e+18,0.10535579919815063,0.5135562419891357,0.15023615956306458,10.302847862243652
1.771063003897007e+18,0.06598039716482162,0.10354921966791153,0.3603273630142212,11.307215690612793
1.7710630039471839e+18,-0.07449399679899216,-0.6314706802368164,-1.2515689134597778,9.456498146057129
1.7710630039970903e+18,0.05853100121021271,-0.002394201699644327,1.5532382726669312,9.899425506591797
1.7710630040472013e+18,0.05214580148458481,0.35254618525505066,1.0019733905792236,10.160991668701172
1.7710630040970266e+18,-0.07662239670753479,0.09935937076807022,0.07362169772386551,9.947309494018555
1.77106300414699e+18,0.11706200242042542,-0.7128735184669495,0.5351040959358215,10.657190322875977
1.771063004197071e+18,0.1298324018716812,-0.04908113554120064,1.459265947341919,9.721056938171387
1.7710630042469898e+18,0.009577799588441849,1.0779893398284912,0.14245499670505524,10.02571964263916
1.7710630042974963e+18,0.09471379965543747,-0.020350713282823563,0.37229835987091064,11.397597312927246
1.771063004346981e+18,0.10216320306062698,-0.16220715641975403,1.3323732614517212,9.498396873474121
1.771063004397082e+18,-0.043632201850414276,0.9941922426223755,0.0694318488240242,10.562020301818848
1.7710630044470833e+18,0.0,0.8595184087753296,-0.3944447338581085,10.028712272644043
1.771063004497035e+18,0.023412400856614113,-0.8134300112724304,0.790086567401886,10.395025253295898
1.7710630045475215e+18,0.009577799588441849,0.6991068720817566,0.7601590156555176,10.639832496643066
1.7710630045971164e+18,-0.07449399679899216,-0.2106897532939911,-1.5179238319396973,10.003573417663574
1.7710630046471076e+18,-0.04469640180468559,-0.16220715641975403,-0.46986207365989685,9.905410766601562
1.7710630046970245e+18,-0.01383460033684969,0.9433154463768005,0.3148375153541565,10.520720481872559
1.7710630047470902e+18,-0.08194340020418167,-0.9091981053352356,-0.45250412821769714,10.391433715820312
1.7710630047970296e+18,-0.023412400856614113,0.16579847037792206,-1.3628993034362793,9.77791976928711
1.7710630048471386e+18,0.06385199725627899,0.295683890581131,0.5728127360343933,10.294468879699707
1.7710630048970934e+18,-0.007449400145560503,-0.47824177145957947,-0.3232172131538391,10.168174743652344
1.7710630049469834e+18,-0.025540800765156746,-0.6422445774078369,-1.2384008169174194,9.701903343200684
1.7710630049970962e+18,0.07875079661607742,0.008978256024420261,1.5861586332321167,8.789712905883789
1.7710630050470175e+18,-0.038311198353767395,0.933738648891449,0.5428852438926697,9.496002197265625
1.7710630050970962e+18,-0.10642000287771225,-1.2587515115737915,-0.7841010689735413,9.989208221435547
1.771063005146977e+18,0.03299019858241081,-0.5590460896492004,0.8864531517028809,10.538078308105469
1.7710630051971901e+18,-0.059595201164484024,0.8463503122329712,0.2513911724090576,10.49797534942627
1.7710630052470195e+18,-0.014898800291121006,0.812831461429596,0.74040687084198,9.08958625793457
1.771063005296972e+18,0.08620020002126694,0.0293289702385664,-0.0017956512747332454,11.074379920959473
1.7710630053470756e+18,0.11174099892377853,0.6518213748931885,0.5039794445037842,10.519523620605469
1.7710630053969759e+18,0.010641999542713165,0.3292027413845062,0.751779317855835,9.52353572845459
1.7710630054470518e+18,-0.015962999314069748,0.5632359385490417,-0.7870938181877136,10.688314437866211
1.7710630054970941e+18,0.0904569998383522,0.19033902883529663,0.46567222476005554,10.791265487670898
1.771063005547083e+18,-0.10748419910669327,-0.9876081943511963,-0.9612719416618347,10.775703430175781
1.7710630055969544e+18,-0.038311198353767395,0.16639702022075653,-1.113303780555725,10.51174259185791
1.771063005647096e+18,0.06172360107302666,0.295683890581131,0.6434416770935059,10.654197692871094
1.7710630056975327e+18,0.053210001438856125,-0.05746084079146385,0.3010708689689636,10.557231903076172
1.7710630057470246e+18,-0.08513599634170532,-0.8870517015457153,-0.6356605291366577,9.779715538024902
1.7710630057970706e+18,0.029797600582242012,0.25258827209472656,1.3443442583084106,9.403825759887695
1.7710630058471068e+18,0.0063852001912891865,1.4903905391693115,0.5285199880599976,9.956287384033203
1.7710630058971868e+18,-0.07555820047855377,-0.09277531504631042,-0.15263035893440247,9.786897659301758
1.7710630059470254e+18,0.09152120351791382,-0.447715699672699,0.7044938206672668,10.710460662841797
1.7710630059970957e+18,0.11493360251188278,0.09397241473197937,0.8936357498168945,9.888052940368652
1.7710630060471012e+18,0.02128399908542633,0.20709843933582306,0.10055647045373917,9.244610786437988
1.7710630060970191e+18,0.06172360107302666,0.13168108463287354,0.7200561761856079,10.28130054473877
1.7710630061470433e+18,0.056402601301670074,0.08379705995321274,1.665167212486267,9.43135929107666
1.7710630061970365e+18,-0.04043959826231003,1.3808557987213135,0.06584054231643677,9.883264541625977
1.771063006246955e+18,0.023412400856614113,0.49978959560394287,-0.1604115068912506,10.609306335449219
1.7710630062970936e+18,0.06810879707336426,-0.5339069962501526,0.8906430006027222,11.25574016571045
1.7710630063470932e+18,-0.015962999314069748,0.09636661410331726,0.30526071786880493,10.06163215637207
1.7710630063970752e+18,-0.005320999771356583,-0.7410054206848145,-1.0031704902648926,9.457695007324219
1.7710630064469924e+18,0.059595201164484024,0.7625532150268555,-0.5117605924606323,10.359111785888672
1.7710630064970772e+18,0.03618279844522476,1.2018892765045166,0.569819986820221,9.565434455871582
1.771063006547048e+18,-0.06065940111875534,-1.1222820281982422,-1.2186486721038818,10.412981986999512
1.7710630065970627e+18,-0.01383460033684969,0.24600422382354736,-0.9002197980880737,10.08557415008545
1.7710630066469678e+18,0.03405439853668213,0.5315127968788147,0.33518823981285095,10.02571964263916
1.77106300669708e+18,-0.05214580148458481,-1.6867151260375977,-0.48602294921875,8.917802810668945
1.771063006747145e+18,-0.035118598490953445,-0.3172317147254944,-0.6165069341659546,9.359533309936523
1.7710630067974346e+18,0.05533840134739876,0.3513490855693817,1.4867992401123047,8.777741432189941
1.7710630068469765e+18,-0.09152120351791382,0.9068039059638977,-0.2214636504650116,9.615114212036133
1.7710630068969697e+18,-0.03724699839949608,-0.7667430639266968,0.06344634294509888,11.343727111816406
1.7710630069471145e+18,0.012770400382578373,-0.8158242106437683,0.8571242094039917,11.111490249633789
1.771063006997058e+18,-0.005320999771356583,0.8493430614471436,0.0586579404771328,9.428365707397461
1.771063007047098e+18,0.0,0.31543606519699097,-0.5404910445213318,10.00955867767334
1.7710630070970388e+18,0.10216320306062698,-0.9026139974594116,0.5345055460929871,10.519523620605469
1.771063007147185e+18,0.07981500029563904,0.8607155084609985,0.42018237709999084,10.268731117248535
1.771063007197086e+18,0.0,0.3292027413845062,-1.1845312118530273,9.294290542602539
1.7710630072470295e+18,0.012770400382578373,0.17298106849193573,-0.29388824105262756,10.988188743591309
1.7710630072970744e+18,0.011706200428307056,0.5105634927749634,0.6751648783683777,10.458471298217773
1.7710630073469975e+18,-0.1298324018716812,-0.23523031175136566,-1.1408370733261108,9.181164741516113
1.771063007397022e+18,-0.07023719698190689,-0.08140285313129425,-1.1480196714401245,8.668207168579102
1.7710630074469752e+18,0.007449400145560503,0.8409633040428162,0.31124621629714966,11.293449401855469
1.7710630074972068e+18,-0.1351533979177475,0.8044517636299133,0.16340425610542297,9.714472770690918
1.7710630075470866e+18,-0.11067680269479752,0.44592005014419556,0.1604115068912506,9.292494773864746
1.7710630075971054e+18,-0.038311198353767395,0.8104372620582581,0.2256534993648529,11.352107048034668
1.7710630076470764e+18,-0.10429160296916962,0.24361002445220947,0.5979518890380859,9.169194221496582
1.771063007697048e+18,-0.04043959826231003,1.0241197347640991,0.7308300733566284,9.840168952941895
1.7710630077470912e+18,-0.1553732007741928,0.22924481332302094,-0.772130012512207,11.086949348449707
1.7710630077969782e+18,-0.020219799131155014,0.32441431283950806,0.23762451112270355,10.20648193359375
1.7710630078469688e+18,-0.03724699839949608,0.7374141216278076,-0.0975637212395668,10.777499198913574
1.771063007897071e+18,-0.17878560721874237,-0.8906430006027222,-0.4147954285144806,10.682928085327148
1.7710630079472018e+18,-0.1096125990152359,1.1863269805908203,-0.21308395266532898,10.385448455810547
1.7710630079970414e+18,-0.103227399289608,0.7242460250854492,0.14604629576206207,9.081207275390625
1.7710630080470198e+18,-0.14366699755191803,0.8367734551429749,0.8708908557891846,10.387842178344727
1.7710630080970836e+18,-0.14473119378089905,0.11013327538967133,-0.6422445774078369,9.695918083190918
1.7710630081469757e+18,-0.05108160153031349,0.7852981686592102,-0.2519897222518921,10.895413398742676
1.7710630081970708e+18,-0.020219799131155014,-0.7637503147125244,0.09516951441764832,11.725004196166992
1.771063008247093e+18,-0.11386939883232117,-1.469441294670105,-0.894234299659729,10.234015464782715
1.7710630082970148e+18,-0.07662239670753479,0.03890577703714371,-0.9271546006202698,10.249577522277832
1.7710630083470774e+18,-0.03937539830803871,0.3824737071990967,0.4231751561164856,11.018115997314453
1.7710630083972698e+18,-0.14473119378089905,0.008379706181585789,-0.6374561786651611,10.587160110473633
1.77106300844697e+18,-0.09577800333499908,-0.9852139949798584,-1.062427043914795,9.391854286193848
1.7710630084970127e+18,-0.03086180053651333,1.5610195398330688,0.10354921966791153,11.679513931274414
1.7710630085471114e+18,-0.1159977987408638,0.4207809269428253,0.5374982953071594,10.527304649353027
1.7710630085970127e+18,-0.1223829984664917,1.2874819040298462,0.25079262256622314,8.920795440673828
1.771063008647106e+18,-0.10854840278625488,-0.5135562419891357,-0.8188169598579407,9.70669174194336
1.7710630086970447e+18,-0.12663979828357697,0.6075286865234375,-0.23104046285152435,10.289081573486328
1.771063008747107e+18,-0.03724699839949608,-0.03711012750864029,-0.4213795065879822,9.631275177001953
1.771063008797139e+18,-0.1159977987408638,-0.5853822827339172,-0.11791443079710007,10.598531723022461
1.7710630088471534e+18,-0.0776866003870964,0.7074865698814392,0.4554968774318695,10.28010368347168
1.7710630088971162e+18,-0.01383460033684969,1.0791864395141602,-0.12928688526153564,10.40579891204834
1.7710630089470395e+18,-0.08726440370082855,0.9014168977737427,0.4171896278858185,10.99776554107666
1.7710630089971108e+18,-0.12131880223751068,0.27234044671058655,-0.35913026332855225,11.307814598083496
1.7710630090470904e+18,-0.12025459855794907,1.5969325304031372,-0.07182604819536209,10.628459930419922
1.771063009097024e+18,-0.11280520260334015,-0.005386953707784414,0.5033808946609497,11.089343070983887
1.7710630091470339e+18,-0.19049179553985596,-1.0672154426574707,-1.2144588232040405,9.728240013122559
1.771063009197525e+18,-0.11919040232896805,-0.761954665184021,-0.9032125473022461,9.066842079162598
1.7710630092469612e+18,-0.06278780102729797,0.7218518257141113,0.5997475385665894,10.639832496643066
1.7710630092969876e+18,-0.08832859992980957,-0.19632454216480255,-0.27234044671058655,10.793061256408691
1.7710630093471002e+18,-0.06598039716482162,0.12210428714752197,-0.4034229815006256,9.266159057617188
1.7710630093969743e+18,0.03086180053651333,0.2298433631658554,0.06703764945268631,11.067795753479004
1.771063009447035e+18,-0.04256799817085266,0.7386112213134766,0.42616790533065796,9.832985877990723
1.7710630094970798e+18,-0.046824801713228226,0.43275195360183716,-0.0347159244120121,10.67873764038086
1.7710630095476293e+18,0.043632201850414276,0.40521863102912903,0.49140989780426025,10.6925048828125
1.7710630095970284e+18,-0.02447660081088543,0.21428105235099792,0.6057330369949341,9.966463088989258
1.7710630096471416e+18,-0.04256799817085266,0.8990226984024048,0.6536170244216919,9.424176216125488
1.7710630096970988e+18,0.053210001438856125,-0.38486790657043457,0.7817068696022034,8.579621315002441
1.7710630097470141e+18,0.011706200428307056,0.5997475385665894,0.1646013706922531,9.0859956741333
1.7710630097970972e+18,-0.04043959826231003,0.4387374520301819,0.6997054219245911,10.638036727905273
1.7710630098470548e+18,0.03724699839949608,-0.6099228858947754,0.1173158809542656,9.158419609069824
1.771063009897064e+18,0.011706200428307056,0.15023615956306458,0.13826514780521393,9.97184944152832
1.7710630099470328e+18,0.010641999542713165,0.36152446269989014,0.2651578485965729,9.571419715881348
1.7710630099975785e+18,0.09364960342645645,-1.699883222579956,0.12988543510437012,9.533711433410645
1.7710630100469734e+18,0.06278780102729797,0.032920271158218384,0.5865793824195862,10.474632263183594
1.7710630100969994e+18,0.0,0.7685387134552002,0.3196259140968323,9.622895240783691
1.7710630101471496e+18,0.029797600582242012,-1.3192051649093628,-0.295683890581131,10.056843757629395
1.7710630101970596e+18,-0.025540800765156746,-0.21607670187950134,0.6075286865234375,9.64923095703125
1.7710630102469742e+18,0.004256799817085266,0.3321954905986786,0.284311443567276,8.826823234558105
1.7710630102970115e+18,0.0,-0.7146691679954529,-0.14484919607639313,9.453505516052246
1.7710630103470968e+18,0.015962999314069748,-1.4802151918411255,0.11133037507534027,10.770915031433105
1.7710630103971146e+18,-0.01383460033684969,1.293467402458191,0.3621230125427246,10.118494987487793
1.7710630104469996e+18,0.005320999771356583,0.46088382601737976,-0.5907692313194275,10.415375709533691
1.7710630104974418e+18,0.03299019858241081,-1.2976572513580322,-0.4752490222454071,9.990405082702637
1.7710630105469827e+18,0.035118598490953445,1.0121487379074097,0.26156651973724365,10.81700325012207
1.7710630105970926e+18,-0.01809139922261238,0.4908113479614258,0.09636661410331726,10.374674797058105
1.771063010647034e+18,0.014898800291121006,-0.8056488633155823,-0.8295908570289612,10.430339813232422
1.77106301069707e+18,0.05427420139312744,1.4215571880340576,0.4279635548591614,11.445481300354004
1.7710630107470925e+18,-0.046824801713228226,0.325611412525177,0.3124433159828186,9.847949981689453
