timestamp,omega_z,accel_x,accel_y,accel_z
1.771061547599161e+18,0.0,0.18375498056411743,0.0802057534456253,10.157999038696289
1.7710615476490358e+18,0.0,0.19572599232196808,0.05925649031996727,10.15021800994873
1.7710615476991636e+18,0.0,0.1999158412218094,0.08858545869588852,10.127472877502441
1.7710615477490621e+18,0.0,0.22086510062217712,0.07721300423145294,10.150816917419434
1.7710615477994647e+18,0.0,0.21966800093650818,0.10295066982507706,10.140641212463379
1.7710615478490606e+18,0.0,0.2214636504650116,0.090979665517807,10.15021800994873
1.7710615478994532e+18,0.0,0.2124854028224945,0.10354921966791153,10.154407501220703
1.7710615479491528e+18,0.0,0.2041056901216507,0.12210428714752197,10.14902114868164
1.7710615479990016e+18,0.0,0.2172738015651703,0.07541735470294952,10.125677108764648
1.7710615480491433e+18,0.0,0.18794482946395874,0.09876082092523575,10.136451721191406
1.7710615480991785e+18,0.0,0.18914192914962769,0.090979665517807,10.153809547424316
1.771061548149279e+18,0.0,0.1951274424791336,0.10893617570400238,10.126276016235352
1.7710615481991488e+18,0.0,0.19213467836380005,0.07900865375995636,10.123283386230469
1.7710615482489907e+18,0.0,0.19153612852096558,0.10354921966791153,10.13166332244873
1.7710615482991672e+18,0.0,0.18734627962112427,0.11911153048276901,10.13525390625
1.7710615483492278e+18,0.0,0.18794482946395874,0.07422025501728058,10.13166332244873
1.7710615483991616e+18,0.0,0.17238251864910126,0.10893617570400238,10.130465507507324
1.7710615484490708e+18,0.0,0.20051439106464386,0.09816227108240128,10.158597946166992
1.7710615484991729e+18,0.0,0.2017114907503128,0.07481880486011505,10.135852813720703
1.7710615485490655e+18,0.0,0.2059013396501541,0.10534487664699554,10.180145263671875
1.771061548599074e+18,0.0,0.18076223134994507,0.08858545869588852,10.16637897491455
1.7710615486490908e+18,0.0,0.21128830313682556,0.06883329898118973,10.122684478759766
1.7710615486991665e+18,0.0,0.1909375786781311,0.09277531504631042,10.137648582458496
1.7710615487490913e+18,0.0,0.22206220030784607,0.09277531504631042,10.126874923706055
1.7710615487992128e+18,0.0,0.2106897532939911,0.10354921966791153,10.11789608001709
1.7710615488491543e+18,0.0,0.20231004059314728,0.08259996026754379,10.107721328735352
1.7710615488991675e+18,0.0,0.1843535304069519,0.10534487664699554,10.171765327453613
1.7710615489491523e+18,0.0,0.17657236754894257,0.08379705995321274,10.120888710021973
1.771061548998991e+18,0.0,0.16160860657691956,0.14604629576206207,10.140042304992676
1.771061549049148e+18,0.0,0.1801636815071106,0.12090718746185303,10.15560531616211
1.7710615490991521e+18,0.0,0.21368250250816345,0.05985504016280174,10.128669738769531
1.7710615491490614e+18,0.0,0.18914192914962769,0.11432313174009323,10.138246536254883
1.771061549199798e+18,0.0,0.17896656692028046,0.10893617570400238,10.136451721191406
1.7710615492491594e+18,0.0,0.21009118854999542,0.09157821536064148,10.141838073730469
1.7710615492994668e+18,0.0,0.1999158412218094,0.08619125932455063,10.148422241210938
1.7710615493491587e+18,0.0,0.2064998894929886,0.08918400853872299,10.138246536254883
1.771061549399465e+18,0.0,0.18914192914962769,0.10354921966791153,10.117298126220703
1.771061549449111e+18,0.0,0.21428105235099792,0.06883329898118973,10.128669738769531
1.7710615494994744e+18,0.0,0.20889408886432648,0.10474631935358047,10.144232749938965
1.7710615495490414e+18,0.0,0.2106897532939911,0.10115502029657364,10.119691848754883
1.7710615495991158e+18,0.0,0.24181437492370605,0.040701426565647125,10.096946716308594
1.7710615496490995e+18,0.0,0.21009118854999542,0.08259996026754379,10.159195899963379
1.7710615496991532e+18,0.0,0.208295539021492,0.11671733111143112,10.144830703735352
1.771061549748991e+18,0.0,0.19033902883529663,0.090979665517807,10.155006408691406
1.7710615497989908e+18,0.0,0.20290859043598175,0.06584054231643677,10.135852813720703
1.771061549849153e+18,0.0,0.1999158412218094,0.09157821536064148,10.120290756225586
1.7710615498991619e+18,0.0,0.1885433793067932,0.10833762586116791,10.129268646240234
1.7710615499491418e+18,0.0,0.19931729137897491,0.10175357013940811,10.113107681274414
1.7710615499991857e+18,0.0,0.19452887773513794,0.09516951441764832,10.145429611206055
1.771061550048995e+18,0.0,0.1801636815071106,0.0975637212395668,10.133458137512207
1.7710615500995635e+18,0.0,0.23104046285152435,0.10295066982507706,10.159794807434082
1.7710615501491453e+18,0.0,0.19632454216480255,0.06763619929552078,10.13166332244873
1.7710615501991583e+18,0.0,0.20111294090747833,0.12030863016843796,10.11909294128418
1.7710615502490632e+18,0.0,0.24779987335205078,0.07841010391712189,10.107721328735352
1.7710615502994624e+18,0.0,0.16160860657691956,0.08559270948171616,10.14902114868164
1.7710615503491453e+18,0.0,0.20769698917865753,0.09457096457481384,10.139444351196289
1.7710615503991542e+18,0.0,0.21188685297966003,0.11552023142576218,10.128669738769531
1.77106155044906e+18,0.0,0.23283611238002777,0.07661445438861847,10.128669738769531
1.7710615504991624e+18,0.0,0.19632454216480255,0.10474631935358047,10.136451721191406
1.7710615505491005e+18,0.0,0.1759738177061081,0.13587094843387604,10.133458137512207
1.7710615505989875e+18,0.0,0.20530278980731964,0.08319851011037827,10.14902114868164
1.7710615506490678e+18,0.0,0.15083470940589905,0.12449848651885986,10.129268646240234
1.7710615506989967e+18,0.0,0.181959331035614,0.07541735470294952,10.13166332244873
1.7710615507489871e+18,0.0,0.22206220030784607,0.09636661410331726,10.146626472473145
1.7710615507991444e+18,0.0,0.15442600846290588,0.12330138683319092,10.136451721191406
1.7710615508491543e+18,0.0,0.2124854028224945,0.08559270948171616,10.138246536254883
1.7710615508991557e+18,0.0,0.21787235140800476,0.10714052617549896,10.138845443725586
1.771061550949042e+18,0.0,0.19213467836380005,0.11611878126859665,10.132261276245117
1.7710615509995794e+18,0.0,0.19452887773513794,0.07541735470294952,10.15141487121582
1.7710615510491617e+18,0.0,0.21667525172233582,0.06763619929552078,10.108918190002441
1.7710615510997097e+18,0.0,0.19213467836380005,0.08200141042470932,10.142436981201172
1.771061551149185e+18,0.0,0.20709843933582306,0.10594342648983002,10.1568021774292
1.7710615511991683e+18,0.0,0.19931729137897491,0.05446808785200119,10.109516143798828
1.7710615512490424e+18,0.0,0.17836801707744598,0.09217676520347595,10.150816917419434
1.7710615512990077e+18,0.0,0.17417816817760468,0.10594342648983002,10.131064414978027
1.7710615513491512e+18,0.0,0.20290859043598175,0.10953472554683685,10.136451721191406
1.7710615513990979e+18,0.0,0.1562216579914093,0.12210428714752197,10.131064414978027
1.771061551448998e+18,0.0,0.17717091739177704,0.12210428714752197,10.169371604919434
1.7710615514991619e+18,0.0,0.21009118854999542,0.08499415963888168,10.103530883789062
1.7710615515494318e+18,0.0,0.19033902883529663,0.08319851011037827,10.125677108764648
1.7710615515995999e+18,0.0,0.19213467836380005,0.07841010391712189,10.1568021774292
1.7710615516491118e+18,0.0,0.2238578498363495,0.0933738648891449,10.128669738769531
1.7710615516996718e+18,0.0,0.16998831927776337,0.11312603205442429,10.161590576171875
1.7710615517489823e+18,0.0,0.1777694672346115,0.1215057373046875,10.13405704498291
1.771061551799854e+18,0.0,0.21847090125083923,0.08978256583213806,10.11789608001709
1.771061551849152e+18,0.0,0.19393032789230347,0.0867898091673851,10.118494987487793
1.7710615518991578e+18,0.0,0.18315643072128296,0.11432313174009323,10.15560531616211
1.7710615519490642e+18,0.0,0.2106897532939911,0.10474631935358047,10.139444351196289
1.7710615519990725e+18,0.0,0.23403321206569672,0.06404489278793335,10.135852813720703
1.7710615520491464e+18,0.0,0.19213467836380005,0.12030863016843796,10.15560531616211
1.7710615520991631e+18,0.0,0.21966800093650818,0.06703764945268631,10.14902114868164
1.7710615521491448e+18,0.0,0.20051439106464386,0.11312603205442429,10.163984298706055
1.7710615521991032e+18,0.0,0.20470423996448517,0.10953472554683685,10.109516143798828
1.7710615522491965e+18,0.0,0.1867477297782898,0.10235211998224258,10.148422241210938
1.771061552299153e+18,0.0,0.19632454216480255,0.08200141042470932,10.165780067443848
1.771061552349222e+18,0.0,0.193331778049469,0.09217676520347595,10.114903450012207
1.7710615523996303e+18,0.0,0.1538274586200714,0.09217676520347595,10.128669738769531
1.7710615524491085e+18,0.0,0.21966800093650818,0.05686229094862938,10.137648582458496
1.7710615524995387e+18,0.0,0.208295539021492,0.10055647045373917,10.105326652526855
1.7710615525491556e+18,0.0,0.17238251864910126,0.08918400853872299,10.126276016235352
1.771061552599109e+18,0.0,0.21607670187950134,0.11192892491817474,10.128669738769531
1.7710615526490734e+18,0.0,0.2148796021938324,0.07302314788103104,10.107721328735352
1.771061552699022e+18,0.0,0.17477671802043915,0.10474631935358047,10.137049674987793
1.7710615527491569e+18,0.0,0.19153612852096558,0.09457096457481384,10.155006408691406
1.771061552799396e+18,0.0,0.181959331035614,0.07541735470294952,10.122086524963379
1.7710615528491558e+18,0.0,0.20530278980731964,0.08499415963888168,10.150816917419434
1.771061552899207e+18,0.0,0.21128830313682556,0.09277531504631042,10.140042304992676
1.771061552949063e+18,0.0,0.1999158412218094,0.11252747476100922,10.15141487121582
1.7710615529991137e+18,0.0,0.16639702022075653,0.1538274586200714,10.144830703735352
1.7710615530494313e+18,0.0,0.15981295704841614,0.12449848651885986,10.127472877502441
1.7710615530992038e+18,0.0,0.2124854028224945,0.090979665517807,10.146626472473145
1.771061553149449e+18,0.0,0.18794482946395874,0.09696516394615173,10.14902114868164
1.771061553199203e+18,0.0,0.17178396880626678,0.09038111567497253,10.196905136108398
1.7710615532490458e+18,0.0,0.19812019169330597,0.1173158809542656,10.144830703735352
1.7710615532992668e+18,0.0,0.15801730751991272,0.1215057373046875,10.157400131225586
1.7710615533490734e+18,0.0,0.208295539021492,0.104147769510746,10.153210639953613
1.771061553399193e+18,0.0,0.17238251864910126,0.11372458189725876,10.129268646240234
1.7710615534490417e+18,0.0,0.22685061395168304,0.0975637212395668,10.093954086303711
1.7710615534992077e+18,0.0,0.2172738015651703,0.07960720360279083,10.145429611206055
1.7710615535489795e+18,0.0,0.16759411990642548,0.12030863016843796,10.135852813720703
1.7710615535990333e+18,0.0,0.22625206410884857,0.07661445438861847,10.114903450012207
1.7710615536491044e+18,0.0,0.2454056739807129,0.06165069341659546,10.104727745056152
1.7710615536991462e+18,0.0,0.193331778049469,0.10654197633266449,10.108319282531738
1.7710615537492106e+18,0.0,0.20350714027881622,0.10055647045373917,10.159195899963379
1.7710615537992005e+18,0.0,0.19452887773513794,0.08798690885305405,10.144232749938965
1.7710615538492173e+18,0.0,0.19452887773513794,0.10714052617549896,10.156203269958496
1.7710615538990344e+18,0.0,0.17058686912059784,0.104147769510746,10.15141487121582
1.7710615539491476e+18,0.0,0.20530278980731964,0.09397241473197937,10.122684478759766
1.7710615539990984e+18,0.0,0.18315643072128296,0.11372458189725876,10.153210639953613
1.77106155404898e+18,0.0,0.19213467836380005,0.09696516394615173,10.124480247497559
1.7710615540991872e+18,0.0,0.20709843933582306,0.09576806426048279,10.153210639953613
1.7710615541491067e+18,0.0,0.16519992053508759,0.0975637212395668,10.149619102478027
1.7710615541993093e+18,0.0,0.21607670187950134,0.08259996026754379,10.138845443725586
1.7710615542491466e+18,0.0,0.24899697303771973,0.06823474913835526,10.131064414978027
1.7710615542991813e+18,0.0,0.15023615956306458,0.11851298063993454,10.130465507507324
1.7710615543491512e+18,0.0,0.20470423996448517,0.08319851011037827,10.132261276245117
1.7710615543992123e+18,0.0,0.19871874153614044,0.07122749835252762,10.120888710021973
1.771061554448986e+18,0.0,0.19393032789230347,0.12270283699035645,10.135852813720703
1.7710615544991956e+18,0.0,0.18794482946395874,0.08978256583213806,10.114903450012207
1.7710615545491574e+18,0.0,0.20350714027881622,0.10714052617549896,10.135852813720703
1.7710615545991158e+18,0.0,0.19632454216480255,0.1256955862045288,10.11789608001709
1.7710615546490957e+18,0.0,0.21667525172233582,0.09816227108240128,10.122684478759766
1.771061554699206e+18,0.0,0.19153612852096558,0.10773907601833344,10.125079154968262
1.7710615547492175e+18,0.0,0.17956513166427612,0.08559270948171616,10.152013778686523
1.7710615547992404e+18,0.0,0.18136078119277954,0.10175357013940811,10.166976928710938
1.7710615548490895e+18,0.0,0.2059013396501541,0.08499415963888168,10.105925559997559
1.7710615548992054e+18,0.0,0.1430535465478897,0.10175357013940811,10.153809547424316
1.7710615549490627e+18,0.0,0.17477671802043915,0.10773907601833344,10.140641212463379
1.7710615549991987e+18,0.0,0.2346317619085312,0.09038111567497253,10.114903450012207
1.7710615550491405e+18,0.0,0.1801636815071106,0.10115502029657364,10.125079154968262
1.771061555099211e+18,0.0,0.18734627962112427,0.09516951441764832,10.11909294128418
1.7710615551491423e+18,0.0,0.24181437492370605,0.08619125932455063,10.104727745056152
1.7710615551991114e+18,0.0,0.2106897532939911,0.09816227108240128,10.111311912536621
1.771061555249233e+18,0.0,0.18555063009262085,0.12509703636169434,10.137648582458496
1.7710615552992018e+18,0.0,0.24480712413787842,0.10714052617549896,10.134655952453613
1.7710615553491392e+18,0.0,0.19692309200763702,0.08738835901021957,10.123283386230469
1.771061555399197e+18,0.0,0.18794482946395874,0.10474631935358047,10.127472877502441
1.7710615554491612e+18,0.0,0.21188685297966003,0.090979665517807,10.155006408691406
1.7710615554991004e+18,0.0,0.18315643072128296,0.07781155407428741,10.137049674987793
1.7710615555490593e+18,0.0,0.20231004059314728,0.09457096457481384,10.130465507507324
1.7710615555992123e+18,0.0,0.21787235140800476,0.09816227108240128,10.141838073730469
1.7710615556490547e+18,0.0,0.19213467836380005,0.08918400853872299,10.138246536254883
1.7710615556991928e+18,0.0,0.20709843933582306,0.07242459803819656,10.116100311279297
1.7710615557490606e+18,0.0,0.17298106849193573,0.104147769510746,10.13286018371582
1.7710615557992023e+18,0.0,0.21966800093650818,0.09696516394615173,10.119691848754883
1.771061555849144e+18,0.0,0.2388216108083725,0.0975637212395668,10.111311912536621
1.771061555899153e+18,0.0,0.21787235140800476,0.11971008032560349,10.129268646240234
1.771061555949053e+18,0.0,0.18974047899246216,0.09457096457481384,10.143034934997559
1.7710615559992092e+18,0.0,0.25318682193756104,0.06823474913835526,10.143034934997559
1.771061556049063e+18,0.011706200428307056,0.20709843933582306,0.10654197633266449,10.10053825378418
1.77106155609921e+18,0.008513599634170532,0.25917232036590576,0.12988543510437012,10.17416000366211
1.771061556149144e+18,0.004256799817085266,0.31842881441116333,0.10714052617549896,10.15141487121582
1.7710615561991055e+18,0.0,-0.031124621629714966,0.06404489278793335,10.123881340026855
1.771061556249227e+18,0.0063852001912891865,0.3836708068847656,0.058059390634298325,10.201094627380371
1.771061556299213e+18,0.0,0.2693476974964142,0.09397241473197937,10.110115051269531
1.7710615563492224e+18,0.0063852001912891865,0.447715699672699,0.05386953800916672,10.116100311279297
1.7710615563991437e+18,-0.014898800291121006,0.4381389021873474,0.13527239859104156,10.038289070129395
1.7710615564490668e+18,0.0,0.090979665517807,-0.043095629662275314,10.19271469116211
1.77106155649916e+18,0.009577799588441849,0.2717418968677521,0.07661445438861847,10.242993354797363
1.7710615565491484e+18,-0.009577799588441849,0.3034650683403015,0.12509703636169434,10.11550235748291
1.77106155659915e+18,0.0,0.13706804811954498,0.25318682193756104,9.998186111450195
1.771061556649099e+18,-0.012770400382578373,-0.19033902883529663,-0.050876785069704056,10.186729431152344
1.7710615566992095e+18,0.008513599634170532,0.08200141042470932,0.07003039866685867,10.275315284729004
1.7710615567491453e+18,0.0063852001912891865,0.5512649416923523,0.13407529890537262,9.961075782775879
1.7710615567992425e+18,0.007449400145560503,0.22445639967918396,-0.0005985504249110818,10.090961456298828
1.7710615568491405e+18,0.010641999542713165,0.17417816817760468,0.02274491637945175,10.38305377960205
1.771061556899138e+18,0.004256799817085266,-0.1478419452905655,0.0694318488240242,9.984419822692871
1.7710615569490632e+18,-0.011706200428307056,0.23762451112270355,-0.27413609623908997,10.190918922424316
1.7710615569991652e+18,0.0063852001912891865,0.09217676520347595,-0.22325929999351501,10.158597946166992
1.771061557049142e+18,0.0,0.6859387755393982,-0.17537526786327362,10.250175476074219
1.7710615570992028e+18,-0.02447660081088543,0.07481880486011505,-0.1562216579914093,10.017339706420898
1.7710615571492495e+18,0.0,0.27054479718208313,0.16220715641975403,10.041281700134277
1.7710615571992092e+18,-0.019155599176883698,0.3405751883983612,0.010175356641411781,10.275315284729004
1.7710615572489887e+18,0.0,-0.11372458189725876,-0.12449848651885986,10.08557415008545
1.7710615572992082e+18,0.0,0.40282443165779114,0.07781155407428741,9.967659950256348
1.7710615573491456e+18,-0.004256799817085266,0.1496376097202301,0.272938996553421,9.988609313964844
1.7710615573991037e+18,0.0,-0.08738835901021957,-0.12868833541870117,10.057442665100098
1.7710615574491438e+18,0.014898800291121006,0.5638344883918762,0.10654197633266449,10.188525199890137
1.7710615574990298e+18,0.0,0.3214215636253357,-0.02693476900458336,10.232817649841309
1.7710615575490614e+18,-0.007449400145560503,0.07003039866685867,0.076015904545784,10.140641212463379
1.771061557599239e+18,-0.011706200428307056,-0.3280056416988373,0.0347159244120121,10.311826705932617
1.771061557649158e+18,0.0,0.4908113479614258,0.14365209639072418,10.103530883789062
1.7710615576991124e+18,0.0,0.12689268589019775,0.04668693244457245,10.026317596435547
1.7710615577490655e+18,0.010641999542713165,0.5973533391952515,0.12749123573303223,10.114304542541504
1.7710615577992402e+18,0.005320999771356583,-0.08619125932455063,0.15023615956306458,10.255562782287598
1.7710615578491384e+18,0.014898800291121006,0.6212953329086304,0.2537853717803955,10.237008094787598
1.7710615578992276e+18,0.0,0.17717091739177704,0.13766659796237946,9.928155899047852
1.7710615579489807e+18,0.010641999542713165,0.09217676520347595,0.11192892491817474,10.19271469116211
1.7710615579990966e+18,0.004256799817085266,-0.23343466222286224,0.26815059781074524,10.122086524963379
1.7710615580490621e+18,0.026605000719428062,0.3663128614425659,0.014963760040700436,9.964667320251465
1.771061558099108e+18,0.011706200428307056,0.15921440720558167,0.132279634475708,10.107721328735352
1.7710615581490478e+18,-0.01809139922261238,0.06404489278793335,-0.09038111567497253,10.098742485046387
1.7710615581990984e+18,-0.0063852001912891865,0.19033902883529663,-0.23403321206569672,10.0765962600708
1.7710615582490624e+18,0.014898800291121006,0.304063618183136,-0.03531447425484657,10.187926292419434
1.771061558299225e+18,0.023412400856614113,0.35494038462638855,-0.02992752008140087,10.02811336517334
1.771061558349065e+18,0.023412400856614113,-0.5380968451499939,0.228047713637352,10.356718063354492
1.7710615583991022e+18,0.022348200902342796,0.5991489887237549,-0.005985504016280174,10.143633842468262
1.771061558449058e+18,0.011706200428307056,0.060453593730926514,0.11192892491817474,10.286687850952148
1.771061558499059e+18,-0.017027199268341064,-0.42018237709999084,0.43035775423049927,10.433332443237305
1.7710615585490808e+18,-0.011706200428307056,0.5363011956214905,-0.07242459803819656,10.216058731079102
1.7710615585990966e+18,-0.007449400145560503,0.40043023228645325,0.19213467836380005,10.086173057556152
1.7710615586490086e+18,0.010641999542713165,0.5243301391601562,0.33518823981285095,10.153210639953613
1.7710615586990515e+18,-0.03405439853668213,-0.08200141042470932,-0.4704606235027313,10.256759643554688
1.771061558749488e+18,0.046824801713228226,0.4668693244457245,0.20051439106464386,10.217854499816895
1.7710615587991014e+18,0.0,0.2801215946674347,0.33099839091300964,10.334571838378906
1.7710615588491453e+18,-0.05533840134739876,-0.20470423996448517,-0.19812019169330597,10.113107681274414
1.7710615588989932e+18,-0.035118598490953445,0.375291109085083,0.3106476664543152,9.999981880187988
1.7710615589489943e+18,-0.01383460033684969,0.12509703636169434,0.2783259451389313,10.198101997375488
1.7710615589992274e+18,-0.04256799817085266,0.4537012279033661,0.12270283699035645,9.894038200378418
1.7710615590491028e+18,0.0,0.19393032789230347,0.19452887773513794,9.962272644042969
1.7710615590992366e+18,0.004256799817085266,-0.03232172131538391,0.20530278980731964,10.918158531188965
1.7710615591490975e+18,0.022348200902342796,0.5117605924606323,0.10773907601833344,9.984419822692871
1.7710615591991076e+18,0.020219799131155014,0.24181437492370605,-0.06224924325942993,10.250175476074219
1.7710615592491041e+18,0.031925998628139496,-0.4315548539161682,0.20290859043598175,10.56381607055664
1.771061559299115e+18,0.02447660081088543,0.6009446382522583,0.1478419452905655,9.894038200378418
1.7710615593491366e+18,0.02447660081088543,0.04429272934794426,-0.29388824105262756,10.138246536254883
1.771061559399111e+18,0.0,-0.8056488633155823,0.22086510062217712,10.312424659729004
1.7710615594489928e+18,0.03724699839949608,0.9588777422904968,0.14365209639072418,9.956886291503906
1.7710615594991665e+18,0.007449400145560503,-0.11971008032560349,-0.2106897532939911,9.940126419067383
1.7710615595491602e+18,0.0,-0.5488707423210144,-0.30226796865463257,10.360907554626465
1.7710615595991634e+18,0.04469640180468559,0.5512649416923523,0.2346317619085312,10.01195240020752
1.7710615596491433e+18,-0.009577799588441849,0.27054479718208313,-0.04848258197307587,10.204087257385254
1.7710615596993277e+18,0.0,-0.497395396232605,-0.38786065578460693,10.08198356628418
1.771061559749063e+18,0.01383460033684969,0.6165069341659546,0.132279634475708,10.24239444732666
1.7710615597991683e+18,-0.011706200428307056,-0.0077811554074287415,0.005985504016280174,10.192116737365723
1.7710615598491453e+18,-0.004256799817085266,-0.2669534981250763,-0.3076549172401428,10.33217716217041
1.7710615598991744e+18,0.041503798216581345,0.6685808300971985,0.0035913025494664907,10.08198356628418
1.7710615599490632e+18,-0.009577799588441849,0.07721300423145294,0.272938996553421,10.567407608032227
1.771061559999206e+18,-0.031925998628139496,0.34656068682670593,-0.2298433631658554,10.146028518676758
1.7710615600490698e+18,0.017027199268341064,0.14664484560489655,-0.01975216343998909,9.832387924194336
1.7710615600991442e+18,-0.017027199268341064,0.018555063754320145,-0.01735796220600605,10.537480354309082
1.7710615601491377e+18,-0.02128399908542633,0.5973533391952515,0.05506663769483566,10.292074203491211
1.7710615601990147e+18,0.005320999771356583,0.5428852438926697,0.23403321206569672,10.010157585144043
1.771061560249161e+18,0.0,0.010175356641411781,0.08080430328845978,10.047865867614746
1.7710615602991432e+18,0.012770400382578373,0.3687070608139038,0.21966800093650818,9.891045570373535
1.771061560349232e+18,0.0,0.2753331959247589,0.1843535304069519,10.093954086303711
1.7710615603990615e+18,0.0063852001912891865,0.08918400853872299,0.10654197633266449,10.195707321166992
1.7710615604490609e+18,0.0,0.38067805767059326,0.11312603205442429,9.892242431640625
1.7710615604991613e+18,0.02128399908542633,0.375291109085083,0.12210428714752197,10.068216323852539
1.7710615605491773e+18,0.017027199268341064,0.07481880486011505,0.09217676520347595,10.51054573059082
1.7710615605991337e+18,0.02128399908542633,0.49978959560394287,0.23942016065120697,9.979032516479492
1.7710615606490908e+18,0.017027199268341064,0.21009118854999542,0.10594342648983002,10.11909294128418
1.771061560699073e+18,0.0063852001912891865,-0.043095629662275314,-0.06584054231643677,10.316615104675293
1.7710615607490657e+18,0.022348200902342796,0.40521863102912903,0.2555810213088989,9.753378868103027
1.7710615607990705e+18,0.008513599634170532,0.08319851011037827,0.18794482946395874,10.14902114868164
1.7710615608490647e+18,-0.011706200428307056,0.12330138683319092,0.23762451112270355,10.188525199890137
1.7710615608990945e+18,0.046824801713228226,0.5153518915176392,0.24181437492370605,10.090362548828125
1.771061560949047e+18,-0.029797600582242012,0.19871874153614044,-0.0975637212395668,9.983222007751465
1.771061560999114e+18,0.0063852001912891865,-0.09816227108240128,0.4950011968612671,10.304045677185059
1.7710615610490647e+18,0.031925998628139496,0.8433575630187988,0.43335050344467163,10.301651000976562
1.771061561099068e+18,-0.03618279844522476,0.16579847037792206,-0.016759412363171577,9.898826599121094
1.771061561149062e+18,-0.0063852001912891865,-0.5632359385490417,0.20949263870716095,10.175955772399902
1.7710615611990787e+18,0.03405439853668213,0.12389993667602539,0.1538274586200714,9.847949981689453
1.7710615612490621e+18,-0.03086180053651333,0.24480712413787842,0.053270988166332245,9.784503936767578
1.7710615612990717e+18,-0.007449400145560503,-1.3341689109802246,0.13287819921970367,10.030508041381836
1.7710615613490616e+18,0.0,0.10893617570400238,0.020350713282823563,9.845555305480957
1.7710615613990817e+18,0.0,-0.10055647045373917,0.152031809091568,10.416572570800781
1.7710615614490575e+18,0.017027199268341064,0.4321534037590027,0.008379706181585789,9.95090103149414
1.771061561499077e+18,0.008513599634170532,0.08499415963888168,0.2064998894929886,10.02691650390625
1.7710615615490514e+18,0.008513599634170532,0.18614917993545532,0.2908954918384552,10.039485931396484
1.7710615615991447e+18,0.02766920067369938,0.7104793190956116,0.13527239859104156,10.059836387634277
1.771061561649065e+18,0.022348200902342796,0.26336216926574707,-0.11552023142576218,10.226832389831543
1.7710615616990646e+18,0.012770400382578373,0.38965630531311035,0.26156651973724365,10.164583206176758
1.7710615617490606e+18,0.04256799817085266,0.596754789352417,0.12270283699035645,10.026317596435547
1.7710615617990892e+18,-0.007449400145560503,-0.11432313174009323,0.002394201699644327,10.212467193603516
1.7710615618490604e+18,0.007449400145560503,0.42437225580215454,0.2753331959247589,9.962871551513672
1.771061561899079e+18,-0.020219799131155014,0.29388824105262756,-0.17537526786327362,9.935338020324707
1.7710615619490573e+18,0.0,0.16340425610542297,0.2148796021938324,9.9185791015625
1.7710615619990746e+18,0.014898800291121006,0.03232172131538391,0.46986207365989685,10.578181266784668
1.771061562049063e+18,-0.035118598490953445,-0.07781155407428741,-0.1759738177061081,10.1568021774292
1.7710615620990822e+18,0.031925998628139496,0.3627215623855591,0.04848258197307587,10.096946716308594
1.7710615621490706e+18,0.007449400145560503,-0.10833762586116791,0.38486790657043457,9.677363395690918
1.7710615621991137e+18,-0.004256799817085266,0.8212111592292786,-0.09935937076807022,9.747393608093262
1.771061562249071e+18,0.0,0.16101005673408508,0.19931729137897491,10.248380661010742
1.7710615622992852e+18,0.0,-0.5608417391777039,0.011971008032560349,10.053851127624512
1.7710615623490583e+18,0.04469640180468559,0.7457938194274902,0.12868833541870117,10.275315284729004
1.7710615623991084e+18,-0.02447660081088543,0.5051765441894531,0.18555063009262085,10.313023567199707
1.7710615624490621e+18,-0.01383460033684969,0.09696516394615173,-0.23163901269435883,10.137648582458496
1.7710615624990797e+18,0.0,0.557250440120697,0.24899697303771973,10.035894393920898
1.7710615625491546e+18,-0.01383460033684969,-0.3663128614425659,0.3693056106567383,9.939528465270996
1.7710615625991299e+18,-0.005320999771356583,0.7374141216278076,-0.002394201699644327,10.146626472473145
1.7710615626490747e+18,0.011706200428307056,-0.16819266974925995,-0.10833762586116791,10.080785751342773
1.7710615626990653e+18,0.0,-0.14484919607639313,-0.04189852997660637,9.976638793945312
1.7710615627499236e+18,0.028733400627970695,0.5716156363487244,0.03890577703714371,9.975440979003906
1.771061562799085e+18,0.017027199268341064,-0.09935937076807022,-0.060453593730926514,10.818799018859863
1.771061562849066e+18,0.0,0.02513911761343479,0.10714052617549896,9.758167266845703
1.7710615628990607e+18,0.03086180053651333,0.7709329128265381,-0.018555063754320145,10.133458137512207
1.7710615629490417e+18,0.019155599176883698,-0.2849099934101105,0.25677812099456787,10.54406452178955
1.7710615629990676e+18,0.031925998628139496,0.8750807046890259,0.03531447425484657,10.307636260986328
1.7710615630490488e+18,-0.0063852001912891865,0.031124621629714966,0.132279634475708,9.936535835266113
1.7710615630994266e+18,-0.02128399908542633,-0.3274070918560028,-0.5626373887062073,9.976638793945312
1.7710615631490604e+18,-0.023412400856614113,0.5895721316337585,0.20231004059314728,9.651625633239746
1.771061563199172e+18,0.0,-0.12988543510437012,0.08140285313129425,10.590152740478516
1.7710615632490598e+18,-0.008513599634170532,0.6165069341659546,0.1496376097202301,9.987412452697754
1.771061563299111e+18,0.0,0.41359832882881165,-0.0628477931022644,10.755950927734375
1.7710615633490657e+18,-0.019155599176883698,-0.7757213115692139,-0.272938996553421,10.125079154968262
1.7710615633991158e+18,0.04469640180468559,0.9684545993804932,0.2298433631658554,9.777320861816406
1.7710615634490573e+18,0.0,0.10773907601833344,0.4531026780605316,11.165958404541016
1.7710615634991117e+18,-0.03618279844522476,0.019153613597154617,0.1388636976480484,10.239401817321777
1.7710615635490655e+18,0.0,0.8439561128616333,-0.011372458189725876,10.04846477508545
1.7710615635991078e+18,-0.017027199268341064,-0.6697779297828674,0.014963760040700436,10.33217716217041
1.7710615636490668e+18,0.028733400627970695,0.27712884545326233,0.03890577703714371,9.803058624267578
1.771061563699114e+18,0.005320999771356583,-0.406415730714798,0.2603694200515747,9.278129577636719
1.7710615637490644e+18,0.035118598490953445,0.436343252658844,-0.10833762586116791,9.241020202636719
1.7710615637990915e+18,0.026605000719428062,0.4429273009300232,0.5608417391777039,10.162787437438965
1.771061563849059e+18,0.017027199268341064,-0.14006079733371735,0.2388216108083725,10.685321807861328
1.7710615638990853e+18,0.03724699839949608,0.773327112197876,0.38726210594177246,10.144830703735352
1.7710615639490616e+18,0.02766920067369938,-0.038307227194309235,-0.2693476974964142,9.672574996948242
1.771061563999183e+18,0.012770400382578373,-0.5722141861915588,-0.16639702022075653,10.15261173248291
1.7710615640490596e+18,0.03724699839949608,0.8661024570465088,0.03411737456917763,10.183137893676758
1.7710615640989926e+18,0.028733400627970695,-0.09696516394615173,0.32022446393966675,10.803834915161133
1.771061564149054e+18,-0.05853100121021271,0.041299980133771896,-0.5895721316337585,10.24658489227295
1.771061564199065e+18,0.005320999771356583,0.3357867896556854,0.12509703636169434,10.092757225036621
1.771061564249059e+18,0.012770400382578373,-0.6123170852661133,0.05446808785200119,9.606734275817871
1.7710615642990748e+18,-0.019155599176883698,0.4381389021873474,0.0802057534456253,9.726444244384766
1.7710615643498263e+18,-0.026605000719428062,0.08858545869588852,0.5249286890029907,10.990582466125488
1.7710615643990817e+18,-0.031925998628139496,-0.07541735470294952,-0.5865793824195862,10.331578254699707
1.7710615644490885e+18,0.04576060175895691,0.42676645517349243,0.4058171808719635,9.901819229125977
1.7710615644990792e+18,-0.035118598490953445,-0.5249286890029907,0.34356793761253357,10.305242538452148
1.7710615645490708e+18,0.0,0.386663556098938,0.16879121959209442,10.188525199890137
1.7710615645990968e+18,0.0,0.11851298063993454,0.11432313174009323,10.536282539367676
1.7710615646490685e+18,0.0,-0.076015904545784,0.004189853090792894,10.535085678100586
1.77106156469899e+18,0.012770400382578373,0.4620809257030487,-0.015562310814857483,10.038289070129395
1.7710615647490624e+18,0.022348200902342796,0.14724339544773102,0.0293289702385664,10.047865867614746
1.7710615647990725e+18,0.028733400627970695,0.4058171808719635,-0.1149216815829277,9.691728591918945
1.77106156484906e+18,0.04043959826231003,0.36571431159973145,0.40222588181495667,9.673172950744629
1.77106156489907e+18,0.04256799817085266,0.04369417950510979,0.2555810213088989,10.382455825805664
1.7710615649490614e+18,0.011706200428307056,0.5219359397888184,0.05985504016280174,10.11550235748291
1.7710615649990664e+18,0.007449400145560503,0.2867056429386139,-0.16579847037792206,9.943717956542969
1.771061565049065e+18,-0.0063852001912891865,-0.7308300733566284,-0.17896656692028046,9.986215591430664
1.7710615650990612e+18,0.0,0.3669114112854004,-0.0077811554074287415,9.86770248413086
1.771061565149157e+18,-0.020219799131155014,0.021547814831137657,0.40701428055763245,10.554239273071289
1.7710615651990902e+18,0.0,0.39624038338661194,-0.0454898327589035,9.792284965515137
1.7710615652490662e+18,-0.009577799588441849,0.04010287672281265,0.19692309200763702,9.9371337890625
1.7710615652990902e+18,-0.010641999542713165,-0.608127236366272,-0.28371289372444153,10.259154319763184
1.7710615653490824e+18,0.043632201850414276,0.718859076499939,0.23702596127986908,10.28249740600586
1.7710615653991017e+18,0.0,0.104147769510746,0.3274070918560028,10.67215347290039
1.7710615654490634e+18,-0.025540800765156746,0.31184476613998413,-0.05626373738050461,10.0765962600708
1.7710615654990607e+18,0.014898800291121006,0.6320692300796509,0.4034229815006256,9.88386344909668
1.77106156554906e+18,-0.026605000719428062,0.0035913025494664907,-0.1975216418504715,9.758167266845703
1.7710615655990986e+18,-0.022348200902342796,0.14065934717655182,0.20769698917865753,9.739013671875
1.7710615656490688e+18,-0.028733400627970695,0.33039984107017517,0.09516951441764832,10.153210639953613
1.7710615656991055e+18,0.0,0.4537012279033661,0.2472013235092163,10.071208953857422
1.7710615657490593e+18,-0.0063852001912891865,0.14664484560489655,0.011372458189725876,10.0580415725708
1.771061565799115e+18,-0.0063852001912891865,-0.09636661410331726,0.4082113802433014,10.633248329162598
1.7710615658490627e+18,0.05427420139312744,0.24660277366638184,0.18614917993545532,9.97603988647461
1.7710615658991127e+18,0.014898800291121006,-0.03531447425484657,0.2172738015651703,10.054450035095215
1.7710615659490647e+18,0.005320999771356583,-1.0773907899856567,-0.05267243832349777,10.11550235748291
1.7710615659991096e+18,0.023412400856614113,0.48961424827575684,0.06464344263076782,10.27591323852539
1.7710615660490632e+18,0.022348200902342796,0.6416460275650024,0.12629413604736328,10.307636260986328
1.7710615660991104e+18,-0.005320999771356583,-0.42437225580215454,-0.5129576921463013,10.508749961853027
1.7710615661490662e+18,0.0,0.3321954905986786,0.0867898091673851,10.01075553894043
1.7710615661990976e+18,0.02128399908542633,-0.3758896589279175,0.7679401636123657,10.323199272155762
1.77106156624906e+18,0.0,0.6811503767967224,0.033518824726343155,10.145429611206055
1.7710615662991805e+18,-0.023412400856614113,-0.023942016065120697,0.2495955228805542,9.978433609008789
1.7710615663490609e+18,-0.028733400627970695,-0.10714052617549896,-0.579995334148407,10.441712379455566
1.771061566399166e+18,0.0,0.43275195360183716,0.24899697303771973,10.324995040893555
1.771061566449057e+18,-0.02128399908542633,-0.33698388934135437,0.181959331035614,10.65898609161377
1.7710615664991155e+18,0.020219799131155014,0.6536170244216919,0.1777694672346115,9.99100399017334
1.7710615665491151e+18,-0.01809139922261238,0.4040215313434601,-0.08978256583213806,10.153210639953613
1.7710615665991457e+18,-0.014898800291121006,0.2932896912097931,0.05147533491253853,10.013150215148926
1.771061566649065e+18,-0.019155599176883698,0.36152446269989014,-0.08858545869588852,9.57321548461914
1.7710615666991027e+18,0.008513599634170532,-0.21547815203666687,0.1149216815829277,10.597334861755371
1.771061566749433e+18,0.0,0.2603694200515747,0.16400282084941864,9.630077362060547
1.7710615667991122e+18,-0.01383460033684969,0.6745663285255432,-0.10354921966791153,10.18912410736084
1.7710615668490634e+18,-0.004256799817085266,-0.5380968451499939,-0.18375498056411743,9.851541519165039
1.7710615668991094e+18,0.0,0.761954665184021,0.09816227108240128,9.931148529052734
1.771061566949069e+18,-0.012770400382578373,-0.20889408886432648,0.0293289702385664,9.947907447814941
1.771061566999104e+18,-0.015962999314069748,0.6817489266395569,0.14484919607639313,9.884461402893066
1.7710615670490598e+18,-0.014898800291121006,0.29807811975479126,-0.06763619929552078,10.062829971313477
1.7710615670991076e+18,0.0,0.2825157940387726,0.060453593730926514,10.101137161254883
1.7710615671490588e+18,0.02766920067369938,0.5704185366630554,-0.12928688526153564,10.090362548828125
1.771061567199144e+18,0.0063852001912891865,0.18375498056411743,0.14065934717655182,10.154407501220703
1.7710615672490606e+18,0.010641999542713165,-0.7643488645553589,0.5518634915351868,10.453682899475098
1.7710615672991094e+18,0.0,0.8708908557891846,0.104147769510746,9.933542251586914
1.771061567349155e+18,0.0,0.22445639967918396,0.4183867275714874,10.215459823608398
1.7710615673991357e+18,-0.022348200902342796,-0.30945056676864624,-0.6685808300971985,9.996989250183105
1.771061567449059e+18,-0.01383460033684969,0.3190273642539978,0.4824316203594208,9.836577415466309
1.7710615674991076e+18,-0.009577799588441849,-0.48602294921875,0.19632454216480255,10.460267066955566
1.7710615675490609e+18,-0.012770400382578373,0.656609833240509,0.35494038462638855,10.171167373657227
1.7710615675991163e+18,-0.022348200902342796,0.032920271158218384,0.208295539021492,10.663175582885742
1.7710615676490424e+18,-0.053210001438856125,0.4207809269428253,0.004788403399288654,10.32978343963623
1.7710615676990088e+18,-0.03086180053651333,0.09457096457481384,0.2346317619085312,9.850343704223633
1.7710615677489787e+18,-0.019155599176883698,-0.47824177145957947,0.010175356641411781,10.254365921020508
1.7710615677990216e+18,0.03405439853668213,1.2108675241470337,-0.07781155407428741,10.129268646240234
1.7710615678490378e+18,0.010641999542713165,0.17477671802043915,0.07841010391712189,9.964667320251465
1.7710615678991014e+18,0.0,0.03651157394051552,-0.1454477459192276,10.01075553894043
1.7710615679490522e+18,0.035118598490953445,0.11192892491817474,0.0,9.877877235412598
1.7710615679991004e+18,0.011706200428307056,0.07062894850969315,0.4034229815006256,10.517727851867676
1.7710615680489846e+18,0.02447660081088543,0.39145198464393616,0.12330138683319092,10.075399398803711
1.7710615680991068e+18,0.0,0.5111620426177979,-0.002992752008140087,10.165182113647461
1.7710615681490427e+18,-0.028733400627970695,-0.6482300758361816,-0.21547815203666687,10.109516143798828
1.7710615681990239e+18,0.05853100121021271,0.25438392162323,0.28730419278144836,10.165780067443848
1.7710615682490598e+18,0.0,-0.18555063009262085,-0.028131868690252304,9.904213905334473
1.7710615682991e+18,-0.050017401576042175,0.37888240814208984,0.23582886159420013,9.958083152770996
1.7710615683496742e+18,0.0,0.3818751573562622,-0.16998831927776337,10.280701637268066
1.7710615683991107e+18,-0.011706200428307056,-0.15801730751991272,0.14724339544773102,10.2561616897583
1.7710615684490504e+18,0.017027199268341064,1.128267526626587,0.1801636815071106,10.253169059753418
1.7710615684991063e+18,0.007449400145560503,0.041299980133771896,0.15263035893440247,9.936535835266113
1.771061568549057e+18,0.0,-0.6685808300971985,-0.07541735470294952,10.879252433776855
1.771061568599113e+18,0.0,0.535702645778656,0.23523031175136566,9.64923095703125
1.7710615686490447e+18,-0.022348200902342796,0.09876082092523575,0.23822306096553802,10.334571838378906
1.7710615686991032e+18,-0.01383460033684969,0.38965630531311035,0.09516951441764832,9.70010757446289
1.771061568749045e+18,0.015962999314069748,-0.12988543510437012,0.21966800093650818,10.007762908935547
1.7710615687991552e+18,-0.015962999314069748,-1.1552022695541382,0.04010287672281265,10.260351181030273
1.7710615688490445e+18,0.02128399908542633,0.9618704915046692,0.12030863016843796,10.081384658813477
1.7710615688991337e+18,0.02447660081088543,-0.25318682193756104,0.24241292476654053,10.74338150024414
1.7710615689490604e+18,-0.031925998628139496,0.3405751883983612,-0.08559270948171616,9.96945571899414
1.7710615689991058e+18,0.008513599634170532,0.25737667083740234,-0.03950432687997818,10.062829971313477
1.771061569049166e+18,0.02766920067369938,-0.18555063009262085,0.010773907415568829,10.04427433013916
1.7710615690991084e+18,0.0063852001912891865,0.6607996821403503,0.2364274114370346,9.933542251586914
1.7710615691490673e+18,0.019155599176883698,-0.14664484560489655,0.043095629662275314,10.125079154968262
1.7710615691991163e+18,0.041503798216581345,-0.10893617570400238,0.45489832758903503,10.583568572998047
1.7710615692490606e+18,0.026605000719428062,0.44651859998703003,0.002394201699644327,9.84495735168457
1.771061569299224e+18,0.009577799588441849,0.14484919607639313,0.32680851221084595,10.029311180114746
1.77106156934906e+18,-0.009577799588441849,0.4944026470184326,0.2454056739807129,10.063427925109863
1.771061569399112e+18,-0.010641999542713165,0.36990416049957275,-0.07182604819536209,10.34714126586914
1.7710615694490596e+18,-0.01809139922261238,-0.47644612193107605,0.5728127360343933,10.280701637268066
1.7710615694991096e+18,0.02447660081088543,0.8104372620582581,0.333991140127182,10.346542358398438
1.7710615695490621e+18,-0.023412400856614113,-0.30466216802597046,0.2735375463962555,9.943119049072266
1.7710615695991716e+18,-0.06704460084438324,0.1538274586200714,-0.43754035234451294,10.25975227355957
1.7710615696489907e+18,-0.015962999314069748,0.7248445749282837,0.3597288131713867,10.111910820007324
1.7710615696991096e+18,-0.0063852001912891865,-0.29388824105262756,0.2064998894929886,10.616488456726074
1.7710615697490598e+18,-0.02766920067369938,0.618302583694458,-0.028730420395731926,10.000580787658691
1.7710615697991101e+18,-0.014898800291121006,0.023942016065120697,-0.010773907415568829,10.40460205078125
1.7710615698490598e+18,0.0,-0.07062894850969315,-0.08200141042470932,10.34833812713623
1.7710615698991007e+18,0.0,0.07481880486011505,0.076015904545784,9.90481185913086
1.7710615699496786e+18,0.01383460033684969,-0.36152446269989014,-0.030526071786880493,11.300631523132324
1.771061569999102e+18,0.022348200902342796,0.2519897222518921,0.3429693877696991,10.205883026123047
1.7710615700490668e+18,0.031925998628139496,0.5297170877456665,-0.10953472554683685,10.067618370056152
1.7710615700991043e+18,0.0,-0.20470423996448517,0.25079262256622314,10.566210746765137
1.771061570149059e+18,0.053210001438856125,1.181538462638855,0.08858545869588852,10.13525390625
1.7710615701991048e+18,0.007449400145560503,-0.16160860657691956,0.22864626348018646,9.943119049072266
1.7710615702490616e+18,-0.010641999542713165,0.49380409717559814,0.07062894850969315,9.98801040649414
1.771061570299227e+18,-0.011706200428307056,0.3728969097137451,0.34356793761253357,9.973047256469727
1.7710615703490624e+18,0.015962999314069748,-0.03172317147254944,0.3890577554702759,10.597334861755371
1.7710615703991798e+18,0.0,0.8541314601898193,0.2711433470249176,10.215459823608398
1.7710615704490563e+18,0.0,-0.22086510062217712,-0.09696516394615173,10.372879028320312
1.7710615704991066e+18,0.0,-0.5764040350914001,-0.04010287672281265,9.88506031036377
1.7710615705490652e+18,0.0063852001912891865,0.5734112858772278,0.10534487664699554,9.802459716796875
1.7710615705991352e+18,-0.02128399908542633,-0.4147954285144806,0.3208230137825012,10.845733642578125
1.7710615706490675e+18,-0.022348200902342796,0.5494692921638489,0.2735375463962555,10.19271469116211
1.7710615706990088e+18,0.014898800291121006,0.5626373887062073,-0.1604115068912506,9.996989250183105
1.7710615707491597e+18,-0.028733400627970695,-1.1881226301193237,-0.5740098357200623,9.855731010437012
1.771061570799109e+18,0.008513599634170532,1.5346832275390625,0.22325929999351501,10.106523513793945
1.771061570849065e+18,0.0,-0.0867898091673851,-0.14903905987739563,9.82759952545166
1.771061570899106e+18,-0.028733400627970695,0.1412578970193863,0.0071826050989329815,10.064026832580566
1.7710615709490637e+18,-0.04788900166749954,1.0384849309921265,0.052073884755373,9.906607627868652
1.7710615709990326e+18,0.022348200902342796,0.208295539021492,0.43035775423049927,10.47942066192627
1.7710615710490191e+18,-0.02128399908542633,0.9307458996772766,0.14484919607639313,9.962272644042969
1.7710615710992315e+18,0.010641999542713165,-0.26575639843940735,-0.07841010391712189,10.0951509475708
1.7710615711490606e+18,0.0,-0.31124621629714966,-0.37888240814208984,10.08557415008545
1.7710615711991537e+18,0.022348200902342796,0.790086567401886,0.14664484560489655,10.20648193359375
1.7710615712490583e+18,0.007449400145560503,0.06224924325942993,0.2172738015651703,10.240598678588867
1.7710615712990756e+18,0.0,0.1107318252325058,-0.4704606235027313,9.959878921508789
1.771061571349062e+18,0.004256799817085266,-0.17657236754894257,0.28311434388160706,10.046070098876953
1.7710615713990892e+18,-0.01383460033684969,-0.3836708068847656,0.5147533416748047,10.387842178344727
1.7710615714490555e+18,0.03405439853668213,0.8804676532745361,0.3561374843120575,10.13286018371582
1.771061571499082e+18,-0.004256799817085266,0.23822306096553802,-0.03651157394051552,9.75517463684082
1.7710615715490627e+18,-0.05853100121021271,-0.395043283700943,-0.48901569843292236,9.883264541625977
1.7710615715990866e+18,-0.043632201850414276,0.6153098344802856,0.13826514780521393,10.08437728881836
1.7710615716490865e+18,0.0,0.05506663769483566,0.13168108463287354,10.522516250610352
1.771061571699103e+18,0.009577799588441849,0.3489548861980438,0.29807811975479126,9.852738380432129
1.7710615717490621e+18,-0.029797600582242012,0.11252747476100922,0.17058686912059784,9.911994934082031
1.7710615717990036e+18,-0.019155599176883698,-0.8619126081466675,-0.052073884755373,10.29746150970459
1.7710615718490015e+18,0.0,0.23942016065120697,0.1735796183347702,10.336366653442383
1.7710615718990979e+18,0.0,-0.1885433793067932,0.08978256583213806,10.880449295043945
1.7710615719490537e+18,-0.008513599634170532,0.3345896899700165,0.15682020783424377,10.06163215637207
1.7710615719989996e+18,0.010641999542713165,0.45848962664604187,0.2495955228805542,10.020931243896484
1.7710615720490598e+18,-0.004256799817085266,-1.0067617893218994,-0.24181437492370605,9.823409080505371
1.7710615720990828e+18,0.017027199268341064,0.6015431880950928,0.11013327538967133,9.691728591918945
1.77106157214906e+18,0.019155599176883698,0.17417816817760468,0.436343252658844,10.178349494934082
1.7710615721991055e+18,-0.008513599634170532,0.13527239859104156,-0.09217676520347595,9.957484245300293
1.7710615722489964e+18,-0.017027199268341064,-0.0071826050989329815,-0.005985504016280174,9.719860076904297
1.7710615722990766e+18,0.022348200902342796,-0.21787235140800476,0.46507367491722107,10.554239273071289
1.7710615723490604e+18,0.015962999314069748,0.46327802538871765,-0.07302314788103104,9.875483512878418
1.7710615723990996e+18,-0.0063852001912891865,1.0630255937576294,-0.076015904545784,9.891644477844238
1.7710615724489818e+18,-0.038311198353767395,-0.711077868938446,-0.23942016065120697,9.900023460388184
1.7710615724990792e+18,0.009577799588441849,1.2713210582733154,-0.010773907415568829,10.253767013549805
1.771061572549086e+18,0.0,-0.19153612852096558,0.3280056416988373,9.916184425354004
1.771061572599095e+18,-0.035118598490953445,0.8391676545143127,0.011372458189725876,10.102334022521973
1.7710615726490816e+18,-0.004256799817085266,0.35673603415489197,0.04908113554120064,9.77133560180664
1.771061572699064e+18,0.0,-0.5817909836769104,-0.011971008032560349,10.254365921020508
1.7710615727490621e+18,-0.03724699839949608,0.5835866332054138,0.36750996112823486,9.46487808227539
1.7710615727991665e+18,-0.02128399908542633,-0.4710591733455658,0.3100491166114807,11.046846389770508
1.7710615728490657e+18,-0.031925998628139496,0.07960720360279083,-0.08200141042470932,10.36988639831543
1.7710615728990602e+18,-0.008513599634170532,0.14484919607639313,-0.07481880486011505,9.683947563171387
1.77106157294906e+18,0.009577799588441849,-0.4129997789859772,0.47165772318840027,10.290877342224121
1.7710615729990984e+18,-0.011706200428307056,0.7601590156555176,-0.19931729137897491,9.691728591918945
1.7710615730490616e+18,0.015962999314069748,-0.15083470940589905,0.25258827209472656,9.851541519165039
1.7710615730990776e+18,-0.008513599634170532,0.24600422382354736,-0.1280897855758667,9.475052833557129
1.7710615731490668e+18,0.026605000719428062,0.6643909811973572,0.3405751883983612,9.97065258026123
1.7710615731991017e+18,0.009577799588441849,-0.16400282084941864,0.27054479718208313,10.163984298706055
1.7710615732490685e+18,-0.007449400145560503,0.4171896278858185,0.03651157394051552,10.02811336517334
1.771061573299091e+18,0.010641999542713165,0.34177228808403015,0.3214215636253357,10.278307914733887
1.771061573349067e+18,0.005320999771356583,-0.3645172119140625,0.30226796865463257,10.266935348510742
1.771061573399106e+18,0.01383460033684969,1.0193313360214233,0.38546645641326904,10.27591323852539
1.7710615734489846e+18,0.0,0.25498247146606445,-0.24361002445220947,10.285490036010742
1.7710615734990648e+18,-0.03299019858241081,-0.34356793761253357,-0.41599252820014954,10.126276016235352
1.7710615735490627e+18,-0.011706200428307056,0.689530074596405,-0.09038111567497253,10.131064414978027
1.7710615735990853e+18,0.0,0.2693476974964142,0.5943605899810791,10.18912410736084
1.7710615736489874e+18,0.0,0.5524620413780212,-0.02214636467397213,10.007164001464844
1.77106157369906e+18,-0.008513599634170532,0.18136078119277954,-0.3423708379268646,9.95209789276123
1.7710615737490596e+18,-0.010641999542713165,0.03232172131538391,0.1586158573627472,9.413402557373047
1.7710615737990807e+18,0.010641999542713165,0.6530184745788574,0.04848258197307587,9.82759952545166
1.7710615738494653e+18,-0.008513599634170532,-0.4554968774318695,0.16819266974925995,10.827178001403809
1.771061573899066e+18,-0.046824801713228226,0.5632359385490417,0.18974047899246216,10.02691650390625
1.7710615739490588e+18,-0.01383460033684969,0.19931729137897491,-0.0454898327589035,10.04307746887207
1.7710615739990784e+18,-0.014898800291121006,-0.933738648891449,-0.2585737705230713,10.069413185119629
1.7710615740490486e+18,0.028733400627970695,0.7212532758712769,0.3663128614425659,10.19032096862793
1.7710615740990845e+18,-0.007449400145560503,0.14664484560489655,0.2621650695800781,10.46086597442627
1.7710615741490652e+18,-0.007449400145560503,0.01975216343998909,0.21966800093650818,10.155006408691406
1.7710615741997555e+18,0.031925998628139496,0.6087257862091064,0.052073884755373,9.858723640441895
1.7710615742490606e+18,0.010641999542713165,-0.43095630407333374,0.4471171498298645,10.311227798461914
1.7710615742990725e+18,0.025540800765156746,0.5841851830482483,0.016759412363171577,9.962272644042969
1.7710615743490604e+18,0.010641999542713165,-0.07781155407428741,0.0011971008498221636,10.065223693847656
1.7710615743990963e+18,0.009577799588441849,-1.1875240802764893,-0.656609833240509,10.0951509475708
1.771061574449067e+18,0.04576060175895691,1.3221979141235352,0.2974795699119568,9.886856079101562
1.771061574499061e+18,0.005320999771356583,-0.33997663855552673,-0.3166331648826599,10.43692398071289
1.7710615745490732e+18,-0.04469640180468559,0.3363853394985199,0.333991140127182,10.0580415725708
1.7710615745990735e+18,0.005320999771356583,0.33339259028434753,-0.03232172131538391,10.002375602722168
1.7710615746490665e+18,0.0,-0.6697779297828674,0.42197805643081665,10.770316123962402
1.7710615746990676e+18,0.0,0.8948328495025635,0.076015904545784,10.28010368347168
1.7710615747490583e+18,-0.014898800291121006,-0.11252747476100922,0.24660277366638184,10.56261920928955
1.7710615747990874e+18,-0.025540800765156746,-0.8672995567321777,-0.3836708068847656,9.764751434326172
1.7710615748490708e+18,-0.017027199268341064,0.33937808871269226,-0.043095629662275314,10.280701637268066
1.7710615748990792e+18,-0.023412400856614113,-0.45429977774620056,0.2717418968677521,10.33098030090332
1.7710615749490624e+18,0.0063852001912891865,0.4471171498298645,-0.10594342648983002,9.806051254272461
1.7710615749990856e+18,0.0,0.20949263870716095,0.02214636467397213,9.962871551513672
1.7710615750490596e+18,0.008513599634170532,-0.6171054840087891,0.0071826050989329815,10.550647735595703
1.77106157509931e+18,0.017027199268341064,0.9469067454338074,-0.002992752008140087,10.24000072479248
1.7710615751490683e+18,0.020219799131155014,-0.4734533727169037,0.041299980133771896,10.023923873901367
1.7710615751991137e+18,-0.004256799817085266,0.15502455830574036,0.16400282084941864,10.216058731079102
1.7710615752490634e+18,0.005320999771356583,0.4644751250743866,-0.18076223134994507,10.120888710021973
1.771061575299085e+18,0.02128399908542633,-0.23163901269435883,0.2214636504650116,10.574589729309082
1.7710615753490614e+18,0.004256799817085266,0.8038532137870789,0.2124854028224945,9.936535835266113
1.7710615753990912e+18,0.015962999314069748,0.03770867735147476,0.25977087020874023,9.90481185913086
1.7710615754490609e+18,-0.005320999771356583,-0.7439981698989868,-0.030526071786880493,10.123283386230469
1.77106157549908e+18,0.004256799817085266,0.28371289372444153,0.3884592056274414,9.886856079101562
1.771061575549061e+18,0.007449400145560503,-0.08978256583213806,0.4255693554878235,10.682329177856445
1.771061575599106e+18,-0.008513599634170532,0.42197805643081665,0.020350713282823563,10.138246536254883
1.771061575649061e+18,0.0,0.22744916379451752,-0.23104046285152435,9.774328231811523
1.7710615756990907e+18,-0.008513599634170532,-0.12749123573303223,0.012569558806717396,9.96945571899414
1.7710615757490655e+18,0.02128399908542633,0.6129156351089478,0.3992331326007843,9.95329475402832
1.7710615757990817e+18,0.014898800291121006,0.2753331959247589,0.12270283699035645,10.51413631439209
1.771061575849062e+18,-0.05427420139312744,-0.3172317147254944,0.12270283699035645,10.285490036010742
1.7710615758990776e+18,-0.005320999771356583,0.7823054194450378,-0.09157821536064148,9.59715747833252
1.7710615759490606e+18,-0.026605000719428062,-0.8254010081291199,-0.09217676520347595,10.162787437438965
1.7710615759990907e+18,-0.02766920067369938,0.5865793824195862,0.18614917993545532,10.140641212463379
1.7710615760491604e+18,-0.019155599176883698,0.04728548228740692,0.5410895943641663,9.779715538024902
1.7710615760990804e+18,-0.010641999542713165,0.02992752008140087,-0.20949263870716095,10.53029727935791
1.7710615761490593e+18,0.0,0.7954735159873962,0.30945056676864624,10.441712379455566
1.7710615761990868e+18,0.007449400145560503,-0.7876923680305481,-0.12270283699035645,9.79408073425293
1.7710615762490982e+18,0.03724699839949608,0.8319850564002991,0.21787235140800476,10.136451721191406
1.771061576299079e+18,0.031925998628139496,-0.0999579206109047,0.2513911724090576,9.738415718078613
1.7710615763493527e+18,0.01383460033684969,-0.2926911413669586,-0.26994624733924866,9.916184425354004
1.7710615763990845e+18,0.02447660081088543,0.07122749835252762,0.041299980133771896,10.788272857666016
1.7710615764489925e+18,0.038311198353767395,0.1173158809542656,0.4189852774143219,10.29865837097168
1.771061576499079e+18,0.031925998628139496,0.7757213115692139,0.09217676520347595,10.018536567687988
1.7710615765490598e+18,-0.012770400382578373,0.2585737705230713,0.22505494952201843,9.865307807922363
1.7710615765991035e+18,0.01383460033684969,-0.5243301391601562,0.41539397835731506,10.367491722106934
1.7710615766490831e+18,0.02766920067369938,0.0652419924736023,0.14664484560489655,10.031704902648926
1.7710615766989862e+18,-0.03086180053651333,0.4345476031303406,0.10474631935358047,10.123283386230469
1.7710615767490606e+18,-0.023412400856614113,-0.46507367491722107,-0.45908817648887634,10.062231063842773
1.7710615767991764e+18,-0.004256799817085266,0.2214636504650116,0.21847090125083923,10.155006408691406
1.771061576849059e+18,-0.023412400856614113,-0.37169981002807617,0.23822306096553802,10.281899452209473
1.7710615768991153e+18,-0.008513599634170532,-0.264559268951416,0.1867477297782898,9.84376049041748
1.771061576949059e+18,-0.017027199268341064,0.16879121959209442,0.18914192914962769,10.111910820007324
1.7710615769990781e+18,0.0,-0.5590460896492004,0.10953472554683685,9.93833065032959
1.7710615770490632e+18,-0.02128399908542633,0.33279404044151306,0.010175356641411781,10.533888816833496
1.771061577099081e+18,0.014898800291121006,-0.013766659423708916,0.5494692921638489,10.19271469116211
1.771061577149507e+18,0.008513599634170532,0.5081692934036255,0.07900865375995636,9.767744064331055
1.771061577199009e+18,0.0,0.28072014451026917,0.15023615956306458,10.131064414978027
1.7710615772490637e+18,0.014898800291121006,0.06224924325942993,0.37888240814208984,10.37108325958252
1.77106157729973e+18,0.041503798216581345,0.5129576921463013,0.436343252658844,9.896432876586914
1.77106157734906e+18,-0.012770400382578373,-0.004788403399288654,0.12210428714752197,10.13525390625
1.771061577399085e+18,-0.010641999542713165,-0.10654197633266449,0.08738835901021957,10.233416557312012
1.7710615774490606e+18,0.01383460033684969,0.07841010391712189,0.035913024097681046,9.582792282104492
1.771061577499435e+18,0.014898800291121006,0.3824737071990967,0.08559270948171616,10.642226219177246
1.7710615775490478e+18,0.015962999314069748,0.5776011347770691,0.2759317457675934,10.19032096862793
1.7710615775991793e+18,0.0,0.19153612852096558,0.2663549482822418,10.229825019836426
1.771061577649059e+18,0.01383460033684969,-0.5740098357200623,0.11911153048276901,10.386046409606934
1.7710615776990804e+18,-0.004256799817085266,-0.012569558806717396,0.44651859998703003,9.581595420837402
1.7710615777490655e+18,0.026605000719428062,0.325611412525177,0.5105634927749634,10.357914924621582
1.7710615777990817e+18,-0.053210001438856125,-0.8415618538856506,-0.7493851184844971,10.253767013549805
1.771061577849063e+18,-0.03299019858241081,0.020350713282823563,0.15562310814857483,9.886856079101562
1.771061577899046e+18,0.0,-0.5961562395095825,0.811634361743927,10.624868392944336
1.7710615779490583e+18,-0.026605000719428062,0.7439981698989868,-0.23523031175136566,9.896432876586914
1.7710615779990845e+18,-0.04469640180468559,0.19452887773513794,0.24241292476654053,10.186729431152344
1.7710615780490665e+18,-0.04788900166749954,0.23942016065120697,0.02274491637945175,9.951498985290527
1.7710615780990746e+18,-0.03086180053651333,0.4076128304004669,-0.06584054231643677,10.290278434753418
1.771061578149068e+18,0.0,-0.41599252820014954,-0.22266075015068054,10.06582260131836
1.7710615781990845e+18,0.03086180053651333,0.6356605291366577,0.37888240814208984,10.162188529968262
1.77106157824906e+18,0.011706200428307056,0.22864626348018646,-0.015562310814857483,10.00836181640625
1.7710615782994947e+18,0.020219799131155014,0.4620809257030487,-0.23582886159420013,10.271723747253418
1.7710615783490647e+18,0.031925998628139496,-0.17717091739177704,0.40282443165779114,10.194510459899902
1.7710615783991654e+18,0.017027199268341064,0.4572925269603729,0.15741875767707825,10.85171890258789
1.7710615784490606e+18,0.025540800765156746,0.4602852761745453,0.4620809257030487,9.989806175231934
1.7710615784991094e+18,0.0,0.13108253479003906,-0.17836801707744598,10.086771965026855
1.7710615785494172e+18,0.020219799131155014,-0.07661445438861847,0.5207388401031494,10.163984298706055
1.7710615785991311e+18,0.043632201850414276,0.7864952683448792,0.26994624733924866,10.047865867614746
1.7710615786490644e+18,-0.023412400856614113,-0.13108253479003906,0.1454477459192276,10.25735855102539
1.7710615786991043e+18,-0.010641999542713165,-0.28550854325294495,-0.2801215946674347,10.071208953857422
1.7710615787490573e+18,0.0,-0.12090718746185303,-0.13347674906253815,10.082581520080566
1.7710615787991135e+18,-0.011706200428307056,0.09516951441764832,-0.016759412363171577,10.919953346252441
1.771061578849081e+18,-0.0063852001912891865,0.5632359385490417,0.4489127993583679,10.004171371459961
1.7710615788991155e+18,0.025540800765156746,0.6560112833976746,0.228047713637352,8.908226013183594
1.7710615789490698e+18,0.0,-0.28550854325294495,-0.7266402244567871,9.580397605895996
1.7710615789992197e+18,0.02766920067369938,0.040701426565647125,0.284311443567276,9.557653427124023
1.7710615790490624e+18,-0.012770400382578373,-0.22266075015068054,0.18794482946395874,10.806229591369629
1.7710615790991137e+18,-0.015962999314069748,0.7547720670700073,0.19033902883529663,10.098742485046387
1.7710615791490652e+18,-0.02447660081088543,0.7661445140838623,-0.05686229094862938,10.29865837097168
1.7710615791991148e+18,-0.011706200428307056,-0.834379255771637,-0.17537526786327362,9.898228645324707
1.7710615792490624e+18,0.022348200902342796,0.657806932926178,0.060453593730926514,10.073004722595215
1.7710615792991048e+18,0.011706200428307056,-0.15562310814857483,0.016160860657691956,10.335169792175293
1.7710615793490621e+18,-0.01809139922261238,0.7523778676986694,-0.04967968538403511,10.216058731079102
1.7710615793991416e+18,0.02128399908542633,-0.33758243918418884,0.0035913025494664907,9.382277488708496
1.7710615794490647e+18,0.014898800291121006,0.011971008032560349,0.2585737705230713,10.437521934509277
1.7710615794991073e+18,0.01809139922261238,0.4447229504585266,0.2914940416812897,9.959878921508789
1.7710615795490588e+18,0.017027199268341064,0.24480712413787842,-0.2214636504650116,10.36569595336914
1.7710615795990843e+18,0.01809139922261238,-0.032920271158218384,0.37828385829925537,11.176133155822754
1.771061579649059e+18,0.031925998628139496,0.0933738648891449,-0.009576806798577309,9.88386344909668
1.7710615796989888e+18,0.009577799588441849,-0.17298106849193573,0.3908534348011017,10.247182846069336
1.7710615797490598e+18,-0.023412400856614113,-0.6500257253646851,-0.6607996821403503,9.603741645812988
1.771061579799087e+18,-0.022348200902342796,-0.023942016065120697,0.24660277366638184,9.775525093078613
1.7710615798490604e+18,0.0,-0.4183867275714874,0.4752490222454071,10.463858604431152
1.771061579899876e+18,0.005320999771356583,0.38965630531311035,0.21188685297966003,9.798869132995605
1.7710615799490596e+18,-0.03299019858241081,0.3944447338581085,0.243011474609375,9.747393608093262
1.771061579999133e+18,-0.03618279844522476,-0.3321954905986786,-0.07900865375995636,9.837176322937012
1.771061580049051e+18,0.01383460033684969,0.6326677799224854,0.416591078042984,9.779715538024902
1.7710615800991396e+18,0.0,-0.06165069341659546,0.4531026780605316,11.372457504272461
1.771061580149062e+18,-0.02128399908542633,0.4602852761745453,0.24660277366638184,9.873687744140625
1.7710615801991506e+18,-0.005320999771356583,-0.09277531504631042,0.6266822814941406,9.98801040649414
1.771061580249061e+18,-0.005320999771356583,-0.38067805767059326,0.05506663769483566,10.157999038696289
1.7710615802991101e+18,0.03724699839949608,0.21966800093650818,0.22086510062217712,10.24658489227295
1.7710615803490609e+18,0.011706200428307056,-0.009576806798577309,0.06464344263076782,11.145606994628906
1.7710615803991263e+18,0.010641999542713165,0.5255272388458252,0.2801215946674347,10.118494987487793
1.771061580449069e+18,0.02128399908542633,0.456095427274704,0.29807811975479126,9.843161582946777
1.771061580499107e+18,0.0,-1.01753568649292,-0.1711854189634323,10.10173511505127
1.7710615805491407e+18,0.03937539830803871,0.5919663310050964,0.2914940416812897,10.316615104675293
1.7710615805991409e+18,-0.007449400145560503,-0.03531447425484657,0.009576806798577309,10.16757583618164
1.7710615806490877e+18,-0.03405439853668213,0.5997475385665894,-0.16160860657691956,10.3333740234375
1.7710615806991089e+18,0.02128399908542633,0.5674257874488831,0.243011474609375,10.202890396118164
1.7710615807490586e+18,0.01809139922261238,0.2795230448246002,0.436343252658844,10.353126525878906
1.7710615807991578e+18,0.0,0.965461790561676,0.1215057373046875,9.84615421295166
1.7710615808490624e+18,0.014898800291121006,0.08858545869588852,0.5327098965644836,9.719261169433594
1.7710615808991332e+18,0.026605000719428062,-0.3124433159828186,0.32261866331100464,10.308834075927734
1.7710615809491679e+18,0.01383460033684969,0.406415730714798,0.2190694510936737,9.882067680358887
1.77106158099911e+18,-0.004256799817085266,0.26815059781074524,0.17717091739177704,10.528501510620117
1.7710615810490683e+18,-0.026605000719428062,0.49619829654693604,0.4387374520301819,10.214860916137695
1.7710615810991135e+18,0.0,0.3734954595565796,0.25498247146606445,10.160393714904785
1.771061581149061e+18,-0.02766920067369938,-0.8930371999740601,-0.1478419452905655,10.38305377960205
1.7710615811991137e+18,0.03724699839949608,0.7781155109405518,0.05746084079146385,10.015543937683105
1.7710615812490616e+18,-0.010641999542713165,0.06763619929552078,-0.008978256024420261,10.219649314880371
1.771061581299211e+18,-0.014898800291121006,0.5805938839912415,-0.20470423996448517,10.071807861328125
1.7710615813490655e+18,0.03405439853668213,0.3908534348011017,0.4626794755458832,9.795876502990723
1.7710615813991e+18,0.023412400856614113,-0.3621230125427246,0.3262099623680115,9.916783332824707
1.7710615814490632e+18,-0.007449400145560503,0.5823895335197449,0.4345476031303406,10.298059463500977
1.7710615814991045e+18,-0.05746680125594139,0.2795230448246002,-0.1562216579914093,10.253169059753418
1.7710615815490657e+18,0.014898800291121006,-0.12928688526153564,-0.4118026793003082,10.093355178833008
1.7710615815991288e+18,0.008513599634170532,0.711077868938446,0.12090718746185303,10.066420555114746
1.7710615816490586e+18,0.019155599176883698,0.055665187537670135,0.4704606235027313,10.488997459411621
1.7710615816991132e+18,0.0,-0.06643909960985184,-0.37648820877075195,10.04427433013916
1.771061581749059e+18,-0.012770400382578373,0.25677812099456787,-0.016759412363171577,9.856927871704102
1.7710615817991107e+18,0.0,-0.5201402902603149,0.6919242739677429,10.43931770324707
1.771061581849062e+18,0.015962999314069748,1.0115501880645752,0.20231004059314728,10.247182846069336
1.7710615818991076e+18,0.028733400627970695,0.2902969419956207,0.03411737456917763,10.068216323852539
1.7710615819490665e+18,0.03724699839949608,-0.028730420395731926,-0.7667430639266968,9.560646057128906
1.7710615819991142e+18,0.08513599634170532,0.17956513166427612,0.48123452067375183,10.229825019836426
1.7710615820490634e+18,0.10003480315208435,-0.22206220030784607,0.8894459009170532,10.064026832580566
1.771061582099132e+18,0.05853100121021271,0.3519476354122162,-0.25019407272338867,9.956287384033203
1.771061582149065e+18,0.06917300075292587,0.5871779322624207,0.008379706181585789,10.143633842468262
1.7710615821991058e+18,0.04576060175895691,0.16220715641975403,-0.050876785069704056,10.134655952453613
1.7710615822490621e+18,0.08832859992980957,0.1478419452905655,0.25677812099456787,9.928155899047852
1.7710615822992095e+18,0.07981500029563904,-0.11133037507534027,0.7212532758712769,10.089165687561035
1.771061582349062e+18,0.08087919652462006,0.2256534993648529,-0.48123452067375183,10.460267066955566
1.7710615823991834e+18,0.10535579919815063,0.27892449498176575,0.8170213103294373,10.422558784484863
1.7710615824490627e+18,0.06704460084438324,0.7984662652015686,0.1586158573627472,10.02691650390625
1.7710615824991048e+18,0.08939280360937119,-0.750582218170166,-0.15023615956306458,10.323199272155762
1.771061582549152e+18,0.09790640324354172,0.9103952050209045,0.2801215946674347,10.34953498840332
1.7710615825991342e+18,0.07981500029563904,0.6733692288398743,0.026336219161748886,10.377667427062988
1.7710615826490964e+18,0.10748419910669327,-1.1264718770980835,0.28730419278144836,10.163386344909668
1.7710615826990638e+18,0.043632201850414276,1.3910311460494995,0.055665187537670135,10.049062728881836
1.771061582749061e+18,0.11493360251188278,0.46627077460289,-0.18614917993545532,10.00955867767334
1.7710615827992333e+18,0.0776866003870964,-0.23163901269435883,-0.3776853084564209,9.95209789276123
1.7710615828490563e+18,0.15218059718608856,0.8559271097183228,0.17836801707744598,10.425551414489746
1.7710615828991055e+18,0.13196079432964325,-0.6093243360519409,0.19692309200763702,10.65479564666748
1.7710615829490657e+18,0.0776866003870964,0.18076223134994507,0.17657236754894257,9.809043884277344
1.7710615829991032e+18,0.08939280360937119,0.19273322820663452,0.5590460896492004,10.14902114868164
1.7710615830490463e+18,0.02447660081088543,-0.020949264988303185,-0.10773907601833344,9.850343704223633
1.7710615830991104e+18,0.0776866003870964,0.4213795065879822,0.4985924959182739,10.147225379943848
1.7710615831490675e+18,0.056402601301670074,0.5015852451324463,-0.34596213698387146,10.132261276245117
1.771061583199116e+18,0.07662239670753479,-0.019153613597154617,-0.6230909824371338,9.578003883361816
1.7710615832490624e+18,0.10429160296916962,0.40521863102912903,1.0157400369644165,10.398616790771484
1.77106158329907e+18,0.038311198353767395,0.5069721937179565,-0.1149216815829277,10.109516143798828
1.7710615833490609e+18,0.11174099892377853,0.09876082092523575,0.49559974670410156,10.129867553710938
1.7710615833990764e+18,0.05108160153031349,0.375291109085083,0.014963760040700436,9.961674690246582
1.7710615834490606e+18,0.11386939883232117,0.6099228858947754,0.2148796021938324,10.477624893188477
1.771061583499116e+18,0.1223829984664917,0.5770025849342346,-0.11671733111143112,10.159794807434082
1.7710615835490621e+18,0.07342980057001114,0.7912836670875549,-0.07781155407428741,9.66658878326416
1.7710615835991076e+18,0.12131880223751068,0.31842881441116333,0.15322890877723694,10.139444351196289
1.771061583649067e+18,0.02447660081088543,0.228047713637352,-0.09576806426048279,10.001777648925781
1.7710615836990728e+18,0.07449399679899216,0.6961141228675842,-0.11971008032560349,10.74338150024414
1.7710615837490604e+18,0.10748419910669327,-0.7655459642410278,0.6727706789970398,10.086771965026855
1.7710615837994153e+18,0.0649162009358406,0.05386953800916672,-0.1496376097202301,10.1568021774292
1.7710615838490593e+18,0.11280520260334015,-0.1999158412218094,0.6153098344802856,10.285490036010742
1.7710615838994112e+18,0.04576060175895691,0.5937620401382446,-0.18315643072128296,9.93474006652832
1.771061583949039e+18,0.11812619864940643,0.3693056106567383,-0.24420857429504395,10.326789855957031
1.7710615839990625e+18,0.08300759643316269,0.14365209639072418,-0.05925649031996727,10.164583206176758
1.7710615840490609e+18,0.1096125990152359,0.21009118854999542,0.11312603205442429,10.300454139709473
1.7710615840990559e+18,0.1159977987408638,0.4572925269603729,0.7433996200561523,9.924564361572266
1.7710615841497964e+18,0.04256799817085266,0.6931213736534119,-0.10534487664699554,10.111311912536621
1.7710615841990554e+18,0.08300759643316269,0.3597288131713867,0.14664484560489655,10.921151161193848
1.7710615842490647e+18,0.103227399289608,0.08918400853872299,0.23403321206569672,9.837774276733398
1.7710615842990566e+18,0.06172360107302666,0.5027823448181152,0.08080430328845978,10.172364234924316
1.771061584349056e+18,0.029797600582242012,-0.6027402877807617,-0.09636661410331726,10.163386344909668
1.7710615843994186e+18,0.11706200242042542,1.127070426940918,0.15981295704841614,10.25975227355957
1.7710615844490514e+18,0.07236559689044952,-0.4124012291431427,0.4818330705165863,10.432733535766602
1.771061584499499e+18,0.02128399908542633,0.25318682193756104,-0.33279404044151306,9.685742378234863
1.771061584549154e+18,0.09897059947252274,0.2472013235092163,0.014963760040700436,9.9772367477417
1.7710615845990991e+18,0.06704460084438324,0.08319851011037827,-0.5392939448356628,10.57040023803711
1.7710615846490757e+18,0.15218059718608856,0.4734533727169037,0.38546645641326904,9.77253246307373
1.771061584699199e+18,0.10854840278625488,0.3345896899700165,0.1801636815071106,10.523713111877441
1.77106158474915e+18,0.08087919652462006,-0.0071826050989329815,-0.1215057373046875,10.232817649841309
1.7710615847993907e+18,0.14898799359798431,0.10773907601833344,0.507570743560791,10.243592262268066
1.7710615848490624e+18,0.09790640324354172,0.529118537902832,-0.2849099934101105,9.947907447814941
1.771061584899227e+18,0.11706200242042542,-0.2513911724090576,-0.40222588181495667,10.324396133422852
1.771061584949147e+18,0.13302500545978546,0.6117185354232788,0.8906430006027222,9.99100399017334
1.7710615849991951e+18,0.04469640180468559,0.4183867275714874,-0.35254618525505066,9.933542251586914
1.7710615850492124e+18,0.07342980057001114,-0.8463503122329712,0.1711854189634323,9.82879638671875
1.7710615850991465e+18,0.06917300075292587,0.8990226984024048,0.345363587141037,10.157999038696289
1.7710615851490621e+18,0.07555820047855377,0.24001871049404144,-0.26755204796791077,10.129867553710938
1.7710615851991434e+18,0.046824801713228226,-0.07422025501728058,-0.6099228858947754,10.111910820007324
1.7710615852491476e+18,0.13408920168876648,0.5668272376060486,-0.05267243832349777,10.014945983886719
1.7710615852992927e+18,0.0776866003870964,-0.34177228808403015,0.5201402902603149,10.643423080444336
1.77106158534915e+18,0.103227399289608,0.8702923059463501,0.3345896899700165,10.093355178833008
1.77106158539921e+18,0.07023719698190689,-0.0035913025494664907,0.3274070918560028,10.951677322387695
1.771061585449168e+18,0.03086180053651333,0.5602431893348694,-0.17896656692028046,10.808623313903809
1.7710615854992018e+18,0.08513599634170532,0.3214215636253357,0.33518823981285095,9.713874816894531
1.7710615855493542e+18,0.08726440370082855,-0.23044191300868988,0.4686649739742279,10.01075553894043
1.771061585598986e+18,0.06172360107302666,0.11432313174009323,0.0347159244120121,10.289081573486328
1.7710615856491072e+18,0.07342980057001114,-0.01735796220600605,0.5207388401031494,9.867103576660156
1.7710615856990687e+18,0.07875079661607742,0.8481459617614746,0.0802057534456253,10.193912506103516
1.7710615857491372e+18,0.053210001438856125,-0.3010708689689636,-0.4704606235027313,10.178948402404785
1.7710615857991624e+18,0.009577799588441849,0.3992331326007843,-0.46327802538871765,10.0765962600708
1.7710615858491553e+18,0.08513599634170532,0.6787561774253845,0.406415730714798,9.93833065032959
1.771061585899148e+18,0.0,-0.20111294090747833,-0.09636661410331726,10.524910926818848
1.7710615859491548e+18,0.004256799817085266,0.8565256595611572,0.07122749835252762,10.296862602233887
1.7710615859991025e+18,0.022348200902342796,-0.16879121959209442,-0.004788403399288654,10.256759643554688
1.771061586049087e+18,0.02447660081088543,0.333991140127182,0.6841431260108948,9.697713851928711
1.7710615860990042e+18,0.015962999314069748,-0.07900865375995636,0.5033808946609497,10.31601619720459
1.7710615861491297e+18,-0.010641999542713165,-0.5518634915351868,-0.4602852761745453,10.288482666015625
1.7710615861991644e+18,0.0,0.6949170231819153,0.13706804811954498,10.159195899963379
1.771061586249107e+18,0.01809139922261238,0.17058686912059784,-0.13407529890537262,10.06043529510498
1.7710615862991672e+18,0.0,-0.2801215946674347,0.6260837316513062,9.895833969116211
1.771061586349139e+18,-0.019155599176883698,0.7152677178382874,0.10115502029657364,9.861716270446777
1.7710615863990426e+18,-0.011706200428307056,-0.4010287821292877,-0.2412158101797104,10.986392974853516
1.7710615864491384e+18,0.0,0.6817489266395569,-0.002394201699644327,9.963470458984375
1.7710615864990103e+18,-0.038311198353767395,0.4016273319721222,0.1604115068912506,9.923367500305176
1.7710615865490744e+18,0.0,0.17238251864910126,0.6613982319831848,10.286687850952148
1.7710615865990564e+18,-0.056402601301670074,1.1294646263122559,-0.17896656692028046,10.129268646240234
1.7710615866490644e+18,-0.010641999542713165,-0.2609679698944092,-0.06763619929552078,10.318410873413086
1.7710615866991434e+18,-0.046824801713228226,0.9247604012489319,-0.090979665517807,9.966463088989258
1.7710615867498527e+18,-0.014898800291121006,0.6123170852661133,0.1646013706922531,9.767146110534668
1.7710615867991716e+18,-0.012770400382578373,-0.652419924736023,-0.7146691679954529,10.251971244812012
1.771061586849014e+18,-0.03299019858241081,0.32261866331100464,0.12749123573303223,9.696516990661621
1.7710615868991793e+18,0.03299019858241081,0.10055647045373917,-0.34596213698387146,10.182539939880371
1.771061586949065e+18,0.038311198353767395,0.12689268589019775,1.0905588865280151,10.152013778686523
1.771061586999485e+18,0.028733400627970695,0.2693476974964142,0.14724339544773102,10.18493366241455
1.7710615870490982e+18,0.012770400382578373,-0.5746083855628967,-0.4040215313434601,10.295066833496094
1.771061587099169e+18,0.03937539830803871,0.7601590156555176,0.4034229815006256,9.75517463684082
1.7710615871491008e+18,0.03299019858241081,0.4213795065879822,0.4189852774143219,9.903017044067383
1.771061587199151e+18,0.014898800291121006,-1.0031704902648926,0.2621650695800781,10.063427925109863
1.771061587249114e+18,-0.053210001438856125,0.8224082589149475,-0.24061726033687592,10.15560531616211
1.7710615872991053e+18,-0.012770400382578373,0.6859387755393982,-0.19452887773513794,10.231620788574219
1.7710615873491415e+18,-0.029797600582242012,0.005386953707784414,0.24839842319488525,9.84495735168457
1.7710615873991084e+18,-0.059595201164484024,0.8397662043571472,0.1538274586200714,10.14902114868164
1.771061587449148e+18,-0.02766920067369938,-0.10773907601833344,-0.2603694200515747,10.195707321166992
1.771061587499097e+18,-0.04469640180468559,0.7308300733566284,-0.25677812099456787,9.99100399017334
1.7710615875490642e+18,0.0,0.4231751561164856,0.10175357013940811,10.29865837097168
1.7710615875990874e+18,0.004256799817085266,0.03711012750864029,0.8098387122154236,10.187328338623047
1.77106158764919e+18,-0.031925998628139496,0.6913257241249084,0.010773907415568829,10.072406768798828
1.7710615876991357e+18,-0.015962999314069748,-0.39205053448677063,-0.30526071786880493,10.387842178344727
1.7710615877491123e+18,-0.031925998628139496,0.5494692921638489,-0.23283611238002777,9.80724811553955
1.7710615877993216e+18,0.012770400382578373,0.11552023142576218,0.2627636194229126,10.292074203491211
1.7710615878491464e+18,0.0,-0.3423708379268646,-0.010175356641411781,10.714052200317383
1.7710615878995305e+18,-0.06065940111875534,0.2663549482822418,-0.05686229094862938,9.909002304077148
1.7710615879491476e+18,0.031925998628139496,-0.005985504016280174,-0.010175356641411781,10.396821022033691
1.7710615879992911e+18,0.03618279844522476,-0.2579752206802368,1.0241197347640991,10.013150215148926
1.771061588049385e+18,0.004256799817085266,0.12868833541870117,0.11432313174009323,9.980229377746582
1.7710615880991555e+18,0.008513599634170532,-0.3998316824436188,-0.5488707423210144,10.2962646484375
1.7710615881492826e+18,0.007449400145560503,0.8032546639442444,0.05386953800916672,10.427347183227539
1.7710615881991616e+18,0.03937539830803871,0.26755204796791077,0.2148796021938324,9.917980194091797
1.771061588249148e+18,0.0,-0.18614917993545532,0.4429273009300232,10.415375709533691
1.771061588299116e+18,-0.02128399908542633,0.12928688526153564,0.08499415963888168,9.642048835754395
1.7710615883492244e+18,0.0063852001912891865,-0.13407529890537262,0.11851298063993454,10.11669921875
1.7710615883991805e+18,0.01809139922261238,0.4704606235027313,0.35314473509788513,10.090961456298828
1.7710615884491604e+18,-0.007449400145560503,0.02214636467397213,0.2992752194404602,10.156203269958496
1.771061588499149e+18,-0.03937539830803871,-0.7787140607833862,0.05386953800916672,10.28130054473877
1.7710615885491756e+18,-0.041503798216581345,0.5231330394744873,0.0628477931022644,10.234613418579102
1.7710615885990894e+18,-0.008513599634170532,0.17956513166427612,0.10893617570400238,10.411784172058105
1.771061588649085e+18,-0.01383460033684969,0.1801636815071106,0.38486790657043457,10.138246536254883
1.7710615886991442e+18,-0.053210001438856125,0.4578910768032074,0.20111294090747833,10.1568021774292
1.7710615887491476e+18,-0.004256799817085266,-0.1430535465478897,0.2041056901216507,10.36569595336914
1.7710615887992384e+18,-0.056402601301670074,0.20231004059314728,-0.06584054231643677,9.852139472961426
1.771061588848991e+18,0.02447660081088543,0.16400282084941864,0.33758243918418884,10.445302963256836
1.7710615888991644e+18,0.007449400145560503,-0.24779987335205078,0.12270283699035645,10.086771965026855
1.771061588949154e+18,0.0,0.679354727268219,0.17178396880626678,9.956886291503906
1.7710615889991544e+18,0.043632201850414276,-0.13946224749088287,-0.17178396880626678,10.232219696044922
1.771061589049169e+18,-0.031925998628139496,0.9768342971801758,-0.272938996553421,10.110713958740234
1.771061589099171e+18,0.038311198353767395,0.1735796183347702,0.5734112858772278,10.111311912536621
1.771061589149554e+18,0.01383460033684969,-0.9103952050209045,-0.5710170865058899,10.475829124450684
1.7710615891991726e+18,-0.10535579919815063,0.4207809269428253,0.013168109580874443,10.072406768798828
1.77106158924914e+18,0.041503798216581345,0.48063597083091736,-0.09516951441764832,10.039485931396484
1.7710615892992046e+18,0.020219799131155014,-0.37888240814208984,0.7817068696022034,9.990405082702637
1.7710615893491397e+18,-0.029797600582242012,0.3298012912273407,-0.3082534670829773,10.36689281463623
1.7710615893991724e+18,0.0,-0.3968389332294464,-0.07362169772386551,9.762955665588379
1.771061589449061e+18,-0.02447660081088543,0.4644751250743866,0.061052143573760986,10.062231063842773
1.7710615894993807e+18,0.020219799131155014,-0.18974047899246216,0.10534487664699554,10.02691650390625
1.771061589548992e+18,-0.005320999771356583,-0.4100070297718048,0.9636661410331726,9.870695114135742
1.7710615895992297e+18,-0.050017401576042175,0.6392518281936646,-0.28311434388160706,9.442730903625488
1.7710615896489938e+18,-0.008513599634170532,0.010773907415568829,-0.09277531504631042,10.413579940795898
1.7710615896989932e+18,-0.02447660081088543,0.6823474764823914,0.12210428714752197,10.087369918823242
1.7710615897490202e+18,-0.026605000719428062,0.39624038338661194,0.24361002445220947,9.955090522766113
1.7710615897990003e+18,-0.022348200902342796,-0.7457938194274902,-0.3770867586135864,9.99339771270752
1.7710615898490844e+18,-0.07449399679899216,0.32022446393966675,-0.18495208024978638,10.09934139251709
1.771061589899001e+18,0.011706200428307056,0.011372458189725876,0.16400282084941864,10.240598678588867
1.771061589948991e+18,0.019155599176883698,-0.21787235140800476,0.8092401623725891,10.480019569396973
1.771061589998999e+18,0.0063852001912891865,0.19572599232196808,0.12210428714752197,9.919177055358887
1.771061590048996e+18,0.012770400382578373,0.1478419452905655,-0.416591078042984,10.62127685546875
1.771061590098999e+18,0.014898800291121006,-0.13706804811954498,0.15023615956306458,9.809043884277344
1.7710615901490196e+18,0.03724699839949608,0.09935937076807022,0.5315127968788147,10.237008094787598
1.771061590199e+18,0.020219799131155014,-0.5943605899810791,0.5249286890029907,10.150816917419434
1.771061590249e+18,-0.03618279844522476,0.5979518890380859,-0.08559270948171616,10.043676376342773
1.7710615902990088e+18,0.025540800765156746,-0.19452887773513794,0.20231004059314728,10.757746696472168
1.7710615903489948e+18,0.02128399908542633,0.3705027103424072,0.030526071786880493,9.915586471557617
1.7710615903990525e+18,0.011706200428307056,0.3124433159828186,0.2711433470249176,10.089764595031738
1.771061590448993e+18,0.0,-0.6147112846374512,0.45489832758903503,9.871293067932129
1.7710615904989998e+18,-0.06810879707336426,0.7846996188163757,-0.12270283699035645,9.97065258026123
1.771061590549078e+18,-0.0063852001912891865,-0.06584054231643677,-0.10953472554683685,10.15141487121582
1.7710615905990141e+18,-0.012770400382578373,0.014365210197865963,0.46507367491722107,10.360907554626465
1.7710615906490104e+18,-0.059595201164484024,0.6721721291542053,-0.2106897532939911,9.871293067932129
1.7710615906989985e+18,-0.008513599634170532,0.10295066982507706,-0.06224924325942993,10.61888313293457
1.7710615907490844e+18,-0.09897059947252274,0.8050503134727478,0.12928688526153564,10.463858604431152
1.771061590798999e+18,0.0,0.3447650372982025,0.05506663769483566,9.803058624267578
1.771061590848992e+18,-0.012770400382578373,-0.7781155109405518,-0.23163901269435883,10.418368339538574
1.7710615908990382e+18,-0.059595201164484024,0.6266822814941406,0.10594342648983002,9.405621528625488
1.7710615909489874e+18,0.03618279844522476,-0.17178396880626678,-0.035913024097681046,10.223240852355957
1.771061590999077e+18,0.03086180053651333,0.13108253479003906,0.5895721316337585,9.418190956115723
1.771061591048997e+18,0.012770400382578373,0.3543418347835541,0.24241292476654053,9.946112632751465
1.771061591098981e+18,0.031925998628139496,-0.7823054194450378,-0.07182604819536209,10.36689281463623
1.771061591148975e+18,-0.056402601301670074,0.7266402244567871,-0.002394201699644327,10.298059463500977
1.7710615911990305e+18,0.008513599634170532,0.3489548861980438,0.08439560979604721,10.614692687988281
1.7710615912490826e+18,0.050017401576042175,-0.32022446393966675,0.9289502501487732,9.834183692932129
1.771061591299002e+18,-0.07236559689044952,0.5213373899459839,-0.22744916379451752,10.04547119140625
1.7710615913489981e+18,0.0,-0.8020575642585754,-0.5231330394744873,10.042478561401367
1.771061591399005e+18,-0.023412400856614113,0.6733692288398743,0.08319851011037827,9.88086986541748
1.7710615914489938e+18,0.0,-0.1586158573627472,0.2926911413669586,10.086173057556152
1.771061591498996e+18,0.015962999314069748,-0.33279404044151306,0.9014168977737427,10.07779312133789
1.7710615915490806e+18,-0.11386939883232117,0.6218938827514648,-0.22206220030784607,10.128071784973145
1.7710615915990328e+18,0.020219799131155014,-0.05985504016280174,0.035913024097681046,10.026317596435547
1.7710615916490045e+18,-0.022348200902342796,0.5662286877632141,0.181959331035614,9.898826599121094
1.7710615916989967e+18,-0.03086180053651333,1.4844050407409668,-0.25318682193756104,10.099939346313477
1.7710615917489943e+18,-0.02766920067369938,-0.3860650062561035,-0.2825157940387726,10.38305377960205
1.7710615917990026e+18,-0.103227399289608,0.375291109085083,-0.3345896899700165,9.806051254272461
1.7710615918489935e+18,-0.03086180053651333,0.19213467836380005,0.39624038338661194,10.433930397033691
1.7710615918989865e+18,0.0063852001912891865,-0.47465047240257263,1.0588356256484985,9.983820915222168
1.771061591948987e+18,-0.022348200902342796,0.17417816817760468,0.30286651849746704,10.251373291015625
1.7710615919989944e+18,0.004256799817085266,-0.3274070918560028,-0.3932476341724396,9.826401710510254
1.771061592048993e+18,0.0,0.6619967818260193,-0.22864626348018646,10.066420555114746
1.771061592099e+18,0.022348200902342796,0.08559270948171616,0.14245499670505524,10.087369918823242
1.7710615921489894e+18,0.04576060175895691,-0.38486790657043457,0.4495113492012024,10.074201583862305
1.7710615921989924e+18,-0.06385199725627899,0.5428852438926697,-0.06703764945268631,9.940126419067383
1.771061592248997e+18,0.028733400627970695,-0.19812019169330597,-0.23283611238002777,10.260351181030273
1.7710615922990036e+18,0.026605000719428062,0.016759412363171577,0.17836801707744598,9.82759952545166
1.7710615923490048e+18,0.022348200902342796,0.42377370595932007,0.228047713637352,10.231620788574219
1.7710615923989998e+18,0.0063852001912891865,-0.7858967185020447,0.5117605924606323,9.956886291503906
1.7710615924489935e+18,-0.03299019858241081,0.9217676520347595,-0.24600422382354736,10.182539939880371
1.7710615924989937e+18,-0.008513599634170532,0.17178396880626678,0.38307225704193115,10.181941032409668
1.7710615925490941e+18,0.012770400382578373,0.4878185987472534,0.3669114112854004,9.422380447387695
1.7710615925989998e+18,-0.04043959826231003,0.12928688526153564,0.18315643072128296,10.260950088500977
1.7710615926490002e+18,0.0,0.31543606519699097,-0.333991140127182,10.730213165283203
1.7710615926989965e+18,-0.026605000719428062,0.7164648175239563,-0.11133037507534027,10.255562782287598
1.771061592749023e+18,-0.010641999542713165,0.16639702022075653,0.33279404044151306,10.06043529510498
1.7710615927989952e+18,-0.017027199268341064,-0.7469909191131592,-0.29448679089546204,9.52592945098877
1.771061592848991e+18,-0.08939280360937119,0.8367734551429749,-0.29628247022628784,10.073603630065918
1.771061592899012e+18,0.008513599634170532,-0.10295066982507706,0.2621650695800781,10.390236854553223
1.771061592948989e+18,0.014898800291121006,0.016160860657691956,0.6254851818084717,9.916184425354004
1.771061592998996e+18,0.0,0.4129997789859772,0.2017114907503128,10.305242538452148
1.7710615930489943e+18,0.008513599634170532,-0.7481880187988281,0.39863458275794983,10.328585624694824
1.7710615930989983e+18,-0.022348200902342796,0.7613561153411865,-0.42437225580215454,10.211868286132812
1.7710615931490163e+18,0.01383460033684969,-0.32022446393966675,0.20290859043598175,9.909002304077148
1.7710615931989965e+18,0.056402601301670074,-0.17058686912059784,0.8493430614471436,10.080785751342773
1.77106159324899e+18,-0.043632201850414276,0.558447539806366,-0.08259996026754379,9.686341285705566
1.7710615932989975e+18,0.010641999542713165,-0.8301894068717957,-0.702099621295929,10.36449909210205
1.7710615933490045e+18,-0.004256799817085266,0.895431399345398,-0.11432313174009323,10.120290756225586
1.7710615933990072e+18,0.04788900166749954,0.2968810200691223,0.21787235140800476,10.212467193603516
1.771061593448992e+18,0.04895320162177086,-0.21787235140800476,0.6661866307258606,9.854534149169922
1.7710615934989914e+18,-0.06810879707336426,1.2348095178604126,0.17058686912059784,9.616909980773926
1.7710615935489876e+18,0.03618279844522476,-0.48123452067375183,0.954089343547821,9.61571216583252
1.771061593599e+18,0.0,0.4878185987472534,0.060453593730926514,10.101137161254883
1.7710615936489907e+18,-0.029797600582242012,0.0933738648891449,0.14604629576206207,10.177751541137695
1.7710615936989962e+18,-0.026605000719428062,-0.09157821536064148,-0.2059013396501541,10.289680480957031
1.7710615937489969e+18,-0.04576060175895691,0.50876784324646,0.04728548228740692,9.926959037780762
1.7710615937990026e+18,-0.031925998628139496,0.03950432687997818,-0.016160860657691956,10.055047988891602
1.771061593848996e+18,0.011706200428307056,-0.0065840547904372215,0.8505401611328125,9.911994934082031
1.7710615938989844e+18,-0.015962999314069748,-0.23044191300868988,0.2908954918384552,9.697114944458008
1.7710615939490808e+18,-0.017027199268341064,-0.24899697303771973,-0.272938996553421,10.750563621520996
1.771061593999101e+18,-0.004256799817085266,0.46746787428855896,-0.016759412363171577,10.247182846069336
1.7710615940489976e+18,-0.0063852001912891865,0.5057750940322876,0.08200141042470932,9.909002304077148
1.7710615940989965e+18,0.046824801713228226,-0.11432313174009323,0.6805518269538879,10.055646896362305
1.7710615941490138e+18,-0.005320999771356583,0.09636661410331726,-0.18495208024978638,9.995792388916016
1.7710615941989978e+18,0.0,0.14365209639072418,-0.06823474913835526,10.13166332244873
1.7710615942490028e+18,0.07449399679899216,-0.15741875767707825,0.5452794432640076,10.11550235748291
1.7710615942990881e+18,0.03086180053651333,0.1867477297782898,0.02753331884741783,10.047865867614746
1.7710615943489912e+18,0.007449400145560503,-0.4429273009300232,0.3800795078277588,10.494384765625
1.7710615943990362e+18,-0.019155599176883698,0.026336219161748886,-0.23403321206569672,9.810839653015137
1.7710615944489925e+18,-0.007449400145560503,0.3711012601852417,-0.11611878126859665,9.913191795349121
1.7710615944989972e+18,0.023412400856614113,-0.15442600846290588,0.5961562395095825,10.390236854553223
1.771061594549063e+18,-0.03724699839949608,0.06165069341659546,0.08798690885305405,9.982025146484375
1.7710615945989955e+18,-0.007449400145560503,-0.590170681476593,-0.08559270948171616,10.224437713623047
1.7710615946489912e+18,-0.026605000719428062,0.5847837328910828,0.08619125932455063,9.931747436523438
1.771061594698991e+18,-0.020219799131155014,0.1777694672346115,0.18076223134994507,9.955090522766113
1.7710615947489792e+18,0.011706200428307056,-0.365115761756897,0.9469067454338074,10.340557098388672
1.771061594798995e+18,-0.08513599634170532,0.9702502489089966,-0.24061726033687592,10.078392028808594
1.771061594848993e+18,0.0,0.1735796183347702,0.4596867263317108,10.359710693359375
1.7710615948993708e+18,-0.04469640180468559,0.5165489912033081,0.48602294921875,9.898228645324707
1.7710615949489994e+18,0.0,0.37888240814208984,-0.1346738487482071,10.160393714904785
1.771061594999406e+18,-0.02128399908542633,-0.712274968624115,0.03411737456917763,10.269329071044922
1.7710615950489946e+18,0.005320999771356583,0.3944447338581085,0.166995570063591,10.113107681274414
1.7710615950989972e+18,-0.012770400382578373,-0.09935937076807022,-0.1364694982767105,10.521319389343262
1.7710615951489812e+18,0.03405439853668213,-0.0454898327589035,1.0330979824066162,10.051457405090332
1.7710615951990129e+18,0.028733400627970695,0.4345476031303406,0.1999158412218094,10.144232749938965
1.7710615952489761e+18,0.010641999542713165,-0.922366201877594,-0.46148237586021423,10.11789608001709
1.7710615952989842e+18,0.0,0.970848798751831,0.05386953800916672,9.99459457397461
1.7710615953490798e+18,0.015962999314069748,0.4519055485725403,0.17477671802043915,10.289680480957031
1.7710615953989957e+18,0.05746680125594139,-0.3621230125427246,1.256955862045288,10.183137893676758
1.7710615954490688e+18,-0.09577800333499908,0.5045779943466187,-0.12689268589019775,10.481216430664062
1.7710615954990367e+18,0.03937539830803871,0.4124012291431427,0.39803603291511536,10.06163215637207
1.7710615955492672e+18,0.022348200902342796,0.09876082092523575,0.31124621629714966,9.7976713180542
1.7710615955990833e+18,-0.012770400382578373,0.48961424827575684,0.08978256583213806,9.978433609008789
1.7710615956490056e+18,-0.014898800291121006,-0.07302314788103104,0.19572599232196808,10.128669738769531
1.771061595699057e+18,-0.02447660081088543,0.5123591423034668,-0.24660277366638184,10.24239444732666
1.7710615957490586e+18,-0.023412400856614113,-0.812831461429596,0.20111294090747833,9.320627212524414
1.771061595799183e+18,0.005320999771356583,-0.21547815203666687,0.7206547260284424,10.619481086730957
1.7710615958489871e+18,-0.019155599176883698,0.28790274262428284,0.1951274424791336,10.122684478759766
1.7710615958990595e+18,-0.03618279844522476,-0.5614402890205383,-0.4884171485900879,10.251971244812012
1.771061595949066e+18,0.0,0.01975216343998909,1.3652935028076172,8.851363182067871
1.771061595999058e+18,-0.07342980057001114,1.324592113494873,-0.3196259140968323,9.602544784545898
1.7710615960490662e+18,0.012770400382578373,0.0999579206109047,1.0133458375930786,10.20767879486084
1.7710615960990628e+18,-0.06598039716482162,0.2914940416812897,-0.3669114112854004,9.53969669342041
1.7710615961490604e+18,-0.015962999314069748,0.7469909191131592,-0.4668693244457245,9.931148529052734
1.7710615961990646e+18,0.023412400856614113,-0.6009446382522583,0.4124012291431427,9.98801040649414
1.7710615962490632e+18,0.03299019858241081,0.27892449498176575,0.011971008032560349,10.186729431152344
1.771061596299063e+18,0.0,-0.22864626348018646,0.27712884545326233,10.33098030090332
1.771061596349171e+18,-0.017027199268341064,0.9510965943336487,0.0035913025494664907,10.165780067443848
1.7710615963991572e+18,0.0,0.03711012750864029,0.04489128291606903,10.666767120361328
1.7710615964490624e+18,0.035118598490953445,0.0999579206109047,0.8756792545318604,10.215459823608398
1.771061596499058e+18,-0.02447660081088543,0.529118537902832,-0.10354921966791153,10.013748168945312
1.7710615965490903e+18,0.0,-0.43754035234451294,-0.08978256583213806,10.535085678100586
1.771061596599064e+18,0.019155599176883698,0.7062894701957703,0.272938996553421,10.013150215148926
1.7710615966490675e+18,0.0,0.31124621629714966,-0.06224924325942993,10.232817649841309
1.7710615966990449e+18,0.0,-0.23163901269435883,0.5847837328910828,10.192116737365723
1.7710615967490624e+18,-0.07023719698190689,0.33039984107017517,0.02214636467397213,10.121487617492676
1.771061596799297e+18,0.0,0.3734954595565796,0.46986207365989685,10.292673110961914
1.77106159684906e+18,0.0,1.0199298858642578,0.4554968774318695,10.044873237609863
1.7710615968990477e+18,-0.056402601301670074,0.2190694510936737,0.05746084079146385,10.000580787658691
1.7710615969490458e+18,-0.02766920067369938,0.010773907415568829,-0.36092591285705566,10.24000072479248
1.7710615969990735e+18,-0.07449399679899216,0.33937808871269226,0.03411737456917763,9.792882919311523
1.7710615970490452e+18,-0.022348200902342796,0.1412578970193863,-0.3423708379268646,11.018714904785156
1.7710615970990505e+18,-0.008513599634170532,0.030526071786880493,1.0516530275344849,10.023923873901367
1.7710615971490445e+18,0.007449400145560503,0.5333084464073181,0.15981295704841614,9.967061042785645
1.7710615971990592e+18,0.008513599634170532,-0.30226796865463257,-0.44352585077285767,11.637017250061035
1.7710615972490432e+18,0.06385199725627899,0.8104372620582581,0.05746084079146385,9.691728591918945
1.771061597299057e+18,0.031925998628139496,-0.18974047899246216,0.041299980133771896,9.763554573059082
1.7710615973490473e+18,0.028733400627970695,0.11432313174009323,0.5871779322624207,10.034697532653809
1.77106159739906e+18,0.0,0.5943605899810791,-0.05386953800916672,10.157400131225586
1.7710615974490642e+18,0.0,0.5045779943466187,-0.5261257886886597,10.8690767288208
1.7710615974990525e+18,0.056402601301670074,-0.16879121959209442,0.8990226984024048,9.701305389404297
1.7710615975490414e+18,0.023412400856614113,0.19273322820663452,0.031124621629714966,9.960477828979492
1.7710615975990024e+18,0.004256799817085266,-0.08439560979604721,0.1496376097202301,10.144830703735352
1.7710615976490424e+18,-0.04469640180468559,0.8289923071861267,-0.17417816817760468,10.235810279846191
1.771061597699042e+18,0.0,-0.19273322820663452,0.09157821536064148,9.787496566772461
1.7710615977490632e+18,-0.01809139922261238,0.48123452067375183,0.7374141216278076,10.446500778198242
1.7710615977990472e+18,-0.06065940111875534,0.41359832882881165,0.0035913025494664907,9.097966194152832
1.7710615978490737e+18,-0.025540800765156746,-0.09876082092523575,0.28969839215278625,10.170568466186523
1.7710615978990456e+18,-0.056402601301670074,0.5626373887062073,-0.04489128291606903,9.942521095275879
1.7710615979490634e+18,-0.07342980057001114,-0.5704185366630554,0.2819172441959381,9.515754699707031
1.77106159799908e+18,-0.103227399289608,-0.2711433470249176,1.050455927848816,10.326789855957031
1.7710615980490642e+18,-0.10748419910669327,0.5853822827339172,0.011372458189725876,10.210671424865723
1.7710615980990433e+18,-0.12557560205459595,-0.4644751250743866,-1.0330979824066162,10.704475402832031
1.7710615981490598e+18,-0.10854840278625488,0.10714052617549896,0.272938996553421,10.613495826721191
1.7710615981990687e+18,-0.0776866003870964,0.23044191300868988,-0.023343466222286224,10.042478561401367
1.7710615982490606e+18,-0.07236559689044952,0.06165069341659546,0.2124854028224945,10.323199272155762
1.771061598299046e+18,-0.08726440370082855,-0.3824737071990967,0.7864952683448792,10.35372543334961
1.7710615983490662e+18,-0.07449399679899216,0.1280897855758667,0.1999158412218094,10.075399398803711
1.7710615983990426e+18,-0.08832859992980957,0.17058686912059784,0.05506663769483566,10.326789855957031
1.7710615984490606e+18,-0.0968421995639801,0.18375498056411743,-0.6177040338516235,10.681730270385742
1.7710615984990392e+18,-0.023412400856614113,0.5500678420066833,0.4321534037590027,10.217255592346191
1.7710615985491566e+18,-0.09152120351791382,0.06584054231643677,0.02753331884741783,10.396222114562988
1.7710615985990922e+18,-0.142602801322937,0.6165069341659546,0.2322375625371933,10.359111785888672
1.7710615986489825e+18,-0.08194340020418167,0.07781155407428741,0.14664484560489655,10.2962646484375
1.7710615986990482e+18,-0.1287682056427002,-0.13347674906253815,-0.07481880486011505,10.812812805175781
1.771061598749178e+18,-0.09790640324354172,0.9864110946655273,0.2579752206802368,10.000580787658691
1.7710615987990566e+18,-0.10003480315208435,-0.10714052617549896,0.2651578485965729,9.734824180603027
1.7710615988490744e+18,-0.103227399289608,-0.26575639843940735,0.7451952695846558,9.628281593322754
1.7710615988990574e+18,-0.1606941968202591,0.6272808313369751,0.010175356641411781,9.5809965133667
1.7710615989490575e+18,-0.12770399451255798,-0.4884171485900879,-0.24600422382354736,10.342352867126465
1.7710615989991508e+18,-0.11386939883232117,-0.0035913025494664907,0.3345896899700165,10.061034202575684
1.7710615990490532e+18,-0.09897059947252274,0.7936778664588928,0.0071826050989329815,10.758943557739258
1.7710615990990764e+18,-0.07875079661607742,0.9516951441764832,0.3543418347835541,10.417770385742188
1.7710615991490596e+18,-0.10535579919815063,-0.5770025849342346,0.18974047899246216,9.852738380432129
1.7710615991990536e+18,-0.08300759643316269,-0.1280897855758667,-0.40521863102912903,9.825803756713867
1.7710615992490634e+18,-0.035118598490953445,0.21308395266532898,0.4991910457611084,10.43812084197998
1.7710615992990344e+18,-0.04576060175895691,-0.12689268589019775,-0.4357447028160095,10.228029251098633
1.7710615993489887e+18,0.0649162009358406,0.4842272996902466,0.3734954595565796,10.06582260131836
1.7710615993990397e+18,0.01809139922261238,-0.10594342648983002,0.5183446407318115,10.104727745056152
1.7710615994490557e+18,0.017027199268341064,-0.25318682193756104,-0.67815762758255,10.419565200805664
1.7710615994990664e+18,0.031925998628139496,0.727837324142456,0.1885433793067932,9.686341285705566
1.7710615995490545e+18,0.0,0.12749123573303223,-0.35673603415489197,10.418368339538574
1.771061599599083e+18,0.03086180053651333,0.1538274586200714,0.44412440061569214,10.120888710021973
1.771061599649061e+18,0.0,0.4513069987297058,0.16579847037792206,10.823587417602539
1.7710615996990413e+18,-0.035118598490953445,-0.2238578498363495,-0.5374982953071594,9.535506248474121
1.771061599749058e+18,0.009577799588441849,0.5129576921463013,0.25438392162323,10.011354446411133
1.7710615997994045e+18,0.0,-0.3262099623680115,0.7781155109405518,9.941324234008789
1.771061599849062e+18,-0.028733400627970695,0.6003460884094238,0.5662286877632141,9.892242431640625
1.7710615998990356e+18,-0.05214580148458481,0.10654197633266449,-0.16220715641975403,10.163386344909668
1.7710615999490573e+18,-0.06065940111875534,-0.12689268589019775,-0.0293289702385664,10.661978721618652
1.771061599999109e+18,-0.059595201164484024,0.8092401623725891,0.35913026332855225,10.13166332244873
1.771061600049095e+18,-0.09152120351791382,-0.18974047899246216,0.304063618183136,10.315418243408203
1.7710616000990456e+18,-0.11067680269479752,-0.21308395266532898,-0.17537526786327362,10.114304542541504
1.7710616001490598e+18,-0.0840718001127243,0.37169981002807617,-0.08259996026754379,10.071807861328125
1.77106160019904e+18,-0.07981500029563904,-0.7667430639266968,0.4129997789859772,10.441712379455566
1.7710616002491681e+18,-0.06065940111875534,0.6087257862091064,0.18974047899246216,10.368090629577637
1.771061600299043e+18,0.004256799817085266,0.3992331326007843,-0.04668693244457245,10.453682899475098
1.77106160034906e+18,0.022348200902342796,-0.19213467836380005,0.4010287821292877,10.141838073730469
1.7710616003994045e+18,-0.05214580148458481,0.93254154920578,0.26815059781074524,10.271124839782715
1.7710616004490568e+18,0.020219799131155014,-0.16220715641975403,0.208295539021492,10.605714797973633
1.7710616004991025e+18,0.005320999771356583,0.7056909203529358,0.21667525172233582,10.19032096862793
1.7710616005491082e+18,0.0,0.30885201692581177,0.13766659796237946,9.970054626464844
1.7710616005991117e+18,0.004256799817085266,-0.7003039717674255,0.395043283700943,10.021529197692871
1.7710616006490655e+18,-0.07555820047855377,0.4626794755458832,0.11791443079710007,9.83119010925293
1.771061600699105e+18,-0.0063852001912891865,0.4124012291431427,0.08559270948171616,10.022727012634277
1.7710616007490593e+18,0.03618279844522476,0.9091981053352356,-0.11851298063993454,10.360907554626465
1.7710616007991022e+18,-0.01809139922261238,0.43095630407333374,-0.11851298063993454,10.019135475158691
1.7710616008490624e+18,-0.02128399908542633,-0.37648820877075195,0.41539397835731506,10.52910041809082
1.7710616008990428e+18,-0.025540800765156746,0.7882909178733826,0.4118026793003082,9.882665634155273
1.771061600949056e+18,-0.05214580148458481,0.09935937076807022,0.3321954905986786,9.940126419067383
1.7710616009991025e+18,-0.07449399679899216,-0.8708908557891846,0.4854243993759155,10.043676376342773
1.7710616010490365e+18,-0.1223829984664917,-0.0999579206109047,-0.13527239859104156,10.019734382629395
1.7710616010990592e+18,-0.12557560205459595,-0.33758243918418884,-0.4453215003013611,10.02691650390625
1.7710616011493445e+18,-0.05214580148458481,0.03172317147254944,0.7433996200561523,10.007762908935547
1.7710616011989842e+18,-0.025540800765156746,-0.05147533491253853,0.18614917993545532,10.426149368286133
1.771061601249039e+18,0.0,0.22744916379451752,0.7589619159698486,10.36569595336914
1.7710616012990444e+18,-0.03618279844522476,-0.02214636467397213,-0.34596213698387146,9.996989250183105
1.771061601349047e+18,0.0,-0.7003039717674255,-0.6799532771110535,9.875483512878418
1.7710616013990659e+18,0.059595201164484024,0.5093663930892944,0.7044938206672668,10.218452453613281
1.771061601449074e+18,0.03405439853668213,-0.017956512048840523,-0.013168109580874443,9.837774276733398
1.7710616014995348e+18,0.04256799817085266,-0.3770867586135864,0.5285199880599976,9.901819229125977
1.7710616015490388e+18,-0.017027199268341064,0.5764040350914001,-0.4016273319721222,10.266935348510742
1.7710616015990766e+18,0.041503798216581345,0.456095427274704,0.4854243993759155,10.160991668701172
1.7710616016490417e+18,0.07342980057001114,-0.37828385829925537,1.0845733880996704,9.877877235412598
1.7710616016989937e+18,-0.06598039716482162,0.6135141849517822,-0.047884032130241394,9.948506355285645
1.771061601749054e+18,-0.03618279844522476,-0.18076223134994507,-0.3214215636253357,9.999981880187988
1.7710616017990472e+18,-0.03937539830803871,0.16340425610542297,0.004788403399288654,9.672574996948242
1.7710616018490532e+18,-0.02766920067369938,0.09157821536064148,-0.026336219161748886,10.014347076416016
1.7710616018990505e+18,0.0,-0.32022446393966675,0.8206126093864441,9.656414031982422
1.7710616019494085e+18,-0.056402601301670074,0.5195417404174805,-0.2759317457675934,10.049062728881836
1.7710616019990664e+18,0.0,0.0999579206109047,0.1173158809542656,10.249577522277832
1.7710616020490455e+18,-0.004256799817085266,0.6021417379379272,0.5446808934211731,9.942521095275879
1.7710616020990385e+18,0.0,0.181959331035614,-0.21787235140800476,10.098742485046387
1.7710616021490445e+18,-0.017027199268341064,-0.5907692313194275,-0.21368250250816345,10.029311180114746
1.7710616021990753e+18,-0.038311198353767395,0.5476736426353455,-0.2148796021938324,9.909600257873535
1.7710616022490406e+18,0.019155599176883698,0.041299980133771896,0.08499415963888168,10.007762908935547
1.771061602299082e+18,0.022348200902342796,0.15143325924873352,0.9247604012489319,10.682329177856445
1.7710616023490445e+18,0.008513599634170532,0.14844051003456116,0.19033902883529663,10.125677108764648
1.7710616023990894e+18,-0.028733400627970695,0.11851298063993454,-0.48901569843292236,10.473435401916504
1.7710616024490583e+18,-0.014898800291121006,0.6344634294509888,-0.12090718746185303,9.625887870788574
1.7710616024990636e+18,0.028733400627970695,0.2926911413669586,0.35314473509788513,10.461463928222656
1.7710616025491387e+18,0.015962999314069748,-0.02274491637945175,0.314238965511322,9.980828285217285
1.7710616025989985e+18,-0.0063852001912891865,0.729034423828125,-0.08379705995321274,10.004171371459961
1.7710616026493187e+18,0.02128399908542633,-0.33279404044151306,-0.40521863102912903,10.310030937194824
1.7710616026989983e+18,0.06598039716482162,-0.019153613597154617,1.0588356256484985,10.125079154968262
1.7710616027490378e+18,-0.005320999771356583,0.579995334148407,0.04728548228740692,10.237008094787598
1.7710616027990577e+18,-0.01383460033684969,-0.4854243993759155,0.0586579404771328,10.341155052185059
1.7710616028490596e+18,-0.026605000719428062,0.6021417379379272,-0.406415730714798,10.040682792663574
1.7710616028991608e+18,0.012770400382578373,-0.07062894850969315,0.3345896899700165,9.750985145568848
1.771061602949064e+18,0.020219799131155014,-0.2717418968677521,0.95528644323349,10.176553726196289
1.7710616029991598e+18,-0.05427420139312744,0.4189852774143219,-0.17238251864910126,10.140641212463379
1.7710616030490614e+18,-0.05214580148458481,-0.0011971008498221636,-0.016759412363171577,10.363302230834961
1.7710616030991053e+18,-0.04469640180468559,0.6033388376235962,-0.14484919607639313,9.88625717163086
1.771061603149058e+18,-0.023412400856614113,-0.04848258197307587,0.4058171808719635,10.180145263671875
1.7710616031992776e+18,-0.031925998628139496,0.15981295704841614,-0.002992752008140087,9.86770248413086
1.7710616032490568e+18,-0.03937539830803871,0.9534907937049866,-0.038307227194309235,9.908403396606445
1.7710616032991073e+18,-0.019155599176883698,-0.4728548228740692,-0.5321113467216492,10.264540672302246
1.7710616033490621e+18,0.05746680125594139,0.35015198588371277,0.730231523513794,10.11669921875
1.7710616033991058e+18,0.03086180053651333,0.5632359385490417,0.26396071910858154,10.286687850952148
1.7710616034490634e+18,0.031925998628139496,-0.7469909191131592,-0.08559270948171616,9.805453300476074
1.7710616034991053e+18,0.0063852001912891865,0.6039373874664307,-0.30286651849746704,9.850942611694336
1.771061603549057e+18,0.04788900166749954,0.4387374520301819,-0.1843535304069519,10.454879760742188
1.7710616035991014e+18,0.050017401576042175,0.29209259152412415,0.8649053573608398,10.29746150970459
1.7710616036490604e+18,0.02447660081088543,-0.07122749835252762,0.2777273952960968,10.124480247497559
1.7710616036990979e+18,-0.025540800765156746,-0.11133037507534027,-0.50876784324646,9.923965454101562
1.7710616037490596e+18,0.01383460033684969,0.20051439106464386,0.9570820927619934,10.192116737365723
1.7710616037992207e+18,0.009577799588441849,0.32860419154167175,0.03770867735147476,10.436325073242188
1.7710616038490637e+18,-0.01809139922261238,-0.1346738487482071,0.5416881442070007,10.04307746887207
1.7710616038991066e+18,-0.05427420139312744,0.4034229815006256,-0.2412158101797104,9.948506355285645
1.7710616039490627e+18,0.004256799817085266,-0.29807811975479126,-0.27054479718208313,10.17296314239502
1.7710616039991045e+18,0.007449400145560503,-0.04249707981944084,0.9361328482627869,10.324396133422852
1.7710616040489792e+18,-0.02447660081088543,0.5392939448356628,-0.020949264988303185,10.006566047668457
1.7710616040991037e+18,0.010641999542713165,-0.10115502029657364,0.2998737692832947,10.254963874816895
1.771061604149055e+18,-0.06172360107302666,0.7362170219421387,-0.30945056676864624,9.86231517791748
1.7710616041990938e+18,0.008513599634170532,0.02992752008140087,0.11851298063993454,10.272920608520508
1.7710616042490588e+18,0.0063852001912891865,0.3794809579849243,0.8026561141014099,9.86770248413086
1.7710616042991086e+18,-0.010641999542713165,0.436343252658844,0.1735796183347702,10.420164108276367
1.7710616043491523e+18,-0.04043959826231003,-0.2454056739807129,-0.497395396232605,10.360309600830078
1.7710616043991068e+18,-0.02766920067369938,-0.24839842319488525,-0.22685061395168304,9.86889934539795
1.771061604449062e+18,0.015962999314069748,0.42856210470199585,0.3106476664543152,9.95209789276123
1.7710616044990984e+18,0.0,-0.24361002445220947,0.41778817772865295,10.07779312133789
1.7710616045491052e+18,-0.02447660081088543,0.8571242094039917,0.03950432687997818,10.231620788574219
1.7710616045991503e+18,0.04043959826231003,-0.1604115068912506,-0.28072014451026917,10.58656120300293
1.7710616046489946e+18,0.06385199725627899,0.28072014451026917,1.0067617893218994,10.806827545166016
1.7710616046990966e+18,0.06172360107302666,0.22505494952201843,0.3345896899700165,9.983820915222168
1.77106160474904e+18,0.0063852001912891865,-0.40701428055763245,-0.33518823981285095,9.88506031036377
1.7710616047990927e+18,0.0,0.8517372608184814,0.26156651973724365,10.40460205078125
1.7710616048489856e+18,0.014898800291121006,-0.44352585077285767,-0.017956512048840523,10.18493366241455
1.7710616048990318e+18,0.025540800765156746,0.21966800093650818,0.9923965930938721,10.332776069641113
1.771061604949059e+18,-0.05746680125594139,0.5518634915351868,-0.5045779943466187,10.057442665100098
1.771061604999049e+18,-0.059595201164484024,-0.2992752194404602,-0.7398083209991455,9.951498985290527
1.7710616050491453e+18,0.005320999771356583,0.4279635548591614,0.3130418658256531,9.893440246582031
1.7710616050990743e+18,-0.019155599176883698,-0.10354921966791153,0.016160860657691956,10.208277702331543
1.7710616051494134e+18,-0.015962999314069748,-0.3010708689689636,0.40043023228645325,10.193912506103516
1.7710616051991524e+18,-0.08087919652462006,1.0342950820922852,-0.06763619929552078,9.913790702819824
1.771061605249048e+18,-0.01383460033684969,-0.2454056739807129,-0.40462008118629456,10.207079887390137
1.7710616052990525e+18,-0.01383460033684969,-0.23523031175136566,0.7451952695846558,10.342352867126465
1.77106160534899e+18,0.014898800291121006,0.5003881454467773,0.21128830313682556,10.004171371459961
1.7710616053990705e+18,0.0,-0.7691372632980347,-0.3076549172401428,9.920374870300293
1.7710616054490647e+18,-0.02128399908542633,0.49320554733276367,-0.10055647045373917,10.132261276245117
1.771061605499722e+18,0.041503798216581345,-0.05267243832349777,-0.17956513166427612,10.143633842468262
1.7710616055490614e+18,0.03405439853668213,0.24839842319488525,0.750582218170166,10.383652687072754
1.771061605599046e+18,0.011706200428307056,0.6117185354232788,-0.014963760040700436,10.014945983886719
1.771061605649132e+18,-0.009577799588441849,-0.2825157940387726,-0.5644330382347107,10.160991668701172
1.7710616056990597e+18,0.041503798216581345,0.28072014451026917,1.0001777410507202,9.928753852844238
1.7710616057491533e+18,0.025540800765156746,0.17417816817760468,0.32860419154167175,10.234613418579102
1.771061605799064e+18,0.011706200428307056,-0.264559268951416,-0.0005985504249110818,10.553641319274902
1.7710616058490586e+18,-0.02128399908542633,0.44651859998703003,-0.12389993667602539,9.818022727966309
1.771061605899059e+18,0.020219799131155014,-0.12509703636169434,-0.34177228808403015,10.51054573059082
1.7710616059495204e+18,0.01383460033684969,-0.2687491476535797,0.9403226971626282,10.071208953857422
1.7710616059990595e+18,0.02128399908542633,0.3148375153541565,0.020949264988303185,10.158597946166992
1.7710616060490522e+18,0.0,-0.8708908557891846,-0.26336216926574707,10.02691650390625
1.771061606099064e+18,-0.023412400856614113,0.6853402256965637,-0.2579752206802368,9.949105262756348
1.7710616061490557e+18,0.02447660081088543,-0.24600422382354736,-0.1107318252325058,10.678139686584473
1.7710616061990843e+18,0.0,-0.10893617570400238,1.0570399761199951,9.81263542175293
1.7710616062490575e+18,-0.05533840134739876,0.9032125473022461,-0.23942016065120697,10.00836181640625
1.771061606299168e+18,-0.023412400856614113,-0.24001871049404144,0.22625206410884857,10.155006408691406
1.7710616063490578e+18,-0.022348200902342796,0.7643488645553589,-0.0293289702385664,9.982624053955078
1.7710616063990694e+18,0.0,-0.0999579206109047,-0.06224924325942993,10.682329177856445
1.7710616064491064e+18,0.023412400856614113,0.1256955862045288,0.7811083197593689,10.477624893188477
1.7710616064990566e+18,-0.041503798216581345,0.22086510062217712,-0.19213467836380005,9.958083152770996
1.7710616065491067e+18,0.04256799817085266,0.15143325924873352,0.30466216802597046,10.632649421691895
1.7710616065990246e+18,0.02447660081088543,-0.363918662071228,0.7254431247711182,9.98681354522705
1.7710616066490826e+18,0.02766920067369938,0.6440402269363403,0.2711433470249176,10.081384658813477
1.7710616066990636e+18,0.026605000719428062,-0.37888240814208984,-0.17956513166427612,10.16637897491455
1.7710616067494945e+18,-0.004256799817085266,0.30466216802597046,-0.27892449498176575,9.585186004638672
1.771061606799081e+18,0.04576060175895691,-0.08978256583213806,0.39384618401527405,9.59296703338623
1.7710616068490604e+18,0.03086180053651333,0.055665187537670135,0.19452887773513794,10.652999877929688
1.7710616068994872e+18,-0.025540800765156746,0.2992752194404602,-0.12449848651885986,10.007762908935547
1.771061606949045e+18,-0.026605000719428062,-0.023942016065120697,-0.4016273319721222,11.018714904785156
1.7710616069991135e+18,0.026605000719428062,0.2124854028224945,1.1294646263122559,9.727641105651855
1.771061607049041e+18,-0.005320999771356583,0.4950011968612671,0.4752490222454071,10.291476249694824
1.7710616070990264e+18,-0.05533840134739876,-0.406415730714798,-0.6739677786827087,10.15560531616211
1.771061607149059e+18,-0.026605000719428062,1.0875661373138428,0.12030863016843796,9.746196746826172
1.7710616071990938e+18,0.0,0.2412158101797104,0.11791443079710007,10.189722061157227
1.7710616072490647e+18,0.008513599634170532,0.01975216343998909,0.8409633040428162,10.096946716308594
1.7710616072990653e+18,0.0,0.0017956512747332454,0.4471171498298645,9.833584785461426
1.7710616073490396e+18,0.011706200428307056,0.0867898091673851,0.4315548539161682,10.183137893676758
1.771061607399093e+18,-0.02766920067369938,0.15442600846290588,-0.17477671802043915,9.594164848327637
1.7710616074491494e+18,0.0,-0.03651157394051552,-0.24839842319488525,10.283096313476562
1.7710616074990948e+18,0.03618279844522476,0.3992331326007843,1.1240776777267456,9.943717956542969
1.7710616075490647e+18,-0.03405439853668213,0.7386112213134766,-0.0293289702385664,9.993996620178223
1.771061607599106e+18,0.0063852001912891865,-0.6745663285255432,-0.23343466222286224,10.06043529510498
1.7710616076490465e+18,-0.007449400145560503,0.11312603205442429,0.2735375463962555,9.8784761428833
1.7710616076989834e+18,0.03405439853668213,0.711077868938446,0.5363011956214905,9.81024169921875
1.7710616077490637e+18,0.06598039716482162,0.09636661410331726,0.6901286244392395,10.545859336853027
1.7710616077990774e+18,-0.011706200428307056,0.2472013235092163,-0.04728548228740692,9.663596153259277
1.7710616078490726e+18,0.05214580148458481,0.5231330394744873,-0.17956513166427612,10.411186218261719
1.7710616078991887e+18,0.011706200428307056,0.29209259152412415,0.6697779297828674,10.077195167541504
1.7710616079491628e+18,0.004256799817085266,0.6841431260108948,-0.05446808785200119,9.951498985290527
1.7710616079990682e+18,0.010641999542713165,-0.5345055460929871,-0.47824177145957947,10.089764595031738
1.7710616080490478e+18,-0.05108160153031349,0.4554968774318695,-0.363918662071228,10.25735855102539
1.771061608099044e+18,0.026605000719428062,-0.132279634475708,0.22685061395168304,9.59296703338623
1.7710616081490573e+18,-0.015962999314069748,0.2795230448246002,0.3902548849582672,10.254365921020508
1.7710616081990584e+18,-0.04788900166749954,0.5776011347770691,0.11372458189725876,10.257957458496094
1.771061608249062e+18,-0.020219799131155014,-0.6392518281936646,-0.42377370595932007,10.323797225952148
1.771061608299085e+18,-0.06598039716482162,0.041299980133771896,-0.2298433631658554,10.176553726196289
1.7710616083494152e+18,-0.020219799131155014,0.35494038462638855,0.20231004059314728,10.08198356628418
1.7710616083990723e+18,-0.007449400145560503,0.1711854189634323,0.4620809257030487,9.985017776489258
1.77106160844899e+18,-0.019155599176883698,0.12270283699035645,0.32860419154167175,9.824007987976074
1.7710616084990653e+18,0.007449400145560503,0.333991140127182,-0.395043283700943,10.04427433013916
1.7710616085491238e+18,0.031925998628139496,-0.13108253479003906,0.6314706802368164,10.092158317565918
1.7710616085990753e+18,0.031925998628139496,-0.0017956512747332454,0.18315643072128296,10.029311180114746
1.7710616086490785e+18,0.01383460033684969,-0.21667525172233582,-0.07003039866685867,10.252570152282715
1.7710616086993308e+18,0.014898800291121006,0.20231004059314728,0.2992752194404602,9.920374870300293
1.7710616087490568e+18,0.03086180053651333,0.23044191300868988,-0.05506663769483566,10.515932083129883
1.7710616087991606e+18,0.04576060175895691,-0.15502455830574036,0.7015010714530945,10.125677108764648
1.7710616088489964e+18,0.0,0.4908113479614258,0.2867056429386139,9.934141159057617
1.7710616088990792e+18,0.011706200428307056,0.047884032130241394,-0.5524620413780212,10.047865867614746
1.7710616089490647e+18,0.011706200428307056,0.04249707981944084,0.6338648796081543,10.001178741455078
